onset	duration	trial_type	rt	resp	selection	gender	image_left	image_right	image_left_type	image_right_type
0.0	1.0	ITI	n/a	n/a	n/a	n/a	n/a	n/a	n/a	n/a
1.0238664000062272	2.5093338000006042	decision_social_loss_MISSED	missed	missed	missed	M	MF023.jpg	MF024.jpg	black	asian
3.533361000008881	0.5003190999850631	ISI	0.16676299995742738	7	left	M	MF023.jpg	MF024.jpg	black	asian
4.033742200001143	1.0160944999661297	feedback_social_loss_MISSED	n/a	n/a	n/a	M	MF023.jpg	MF024.jpg	black	asian
5.049944499973208	2.0165593000128865	ITI	n/a	n/a	n/a	M	MF023.jpg	MF024.jpg	black	asian
7.083561900013592	2.501008899998851	decision_social_win	1.1933257000055164	2	right	M	MF015.jpg	MF016.jpg	black	asian
9.58473609999055	0.5153030999936163	ISI	n/a	n/a	n/a	M	MF015.jpg	MF016.jpg	black	asian
10.100096700014547	1.0163816999993287	feedback_social_win_positive	n/a	n/a	n/a	M	MF015.jpg	MF016.jpg	black	asian
11.11657389998436	3.9999712000135332	ITI	n/a	n/a	n/a	M	MF015.jpg	MF016.jpg	black	asian
15.124806099978741	2.501806700020097	decision_social_win	0.85383079998428	7	left	M	MF013.jpg	MF014.jpg	latino	asian
17.626777999976184	1.5063831000006758	ISI	n/a	n/a	n/a	M	MF013.jpg	MF014.jpg	latino	asian
19.133217399998102	1.016773400013335	feedback_social_win_neutral	n/a	n/a	n/a	M	MF013.jpg	MF014.jpg	latino	asian
20.150092699972447	1.0163934000302106	ITI	n/a	n/a	n/a	M	MF013.jpg	MF014.jpg	latino	asian
21.174451900005806	2.5021294999751262	decision_social_loss	0.9373597999801859	2	right	F	FF029.jpg	FF030.jpg	asian	white
23.676742599986028	0.5063734999857843	ISI	n/a	n/a	n/a	F	FF029.jpg	FF030.jpg	asian	white
24.183172999997623	1.0165790999890305	feedback_social_loss_negative	n/a	n/a	n/a	F	FF029.jpg	FF030.jpg	asian	white
25.19988819997525	5.000095500028692	ITI	n/a	n/a	n/a	F	FF029.jpg	FF030.jpg	asian	white
30.207919300009962	2.5017912999610417	decision_social_win	0.9029242999968119	7	left	M	MF003.jpg	MF004.jpg	latino	white
32.709876300010365	2.0066321999765933	ISI	n/a	n/a	n/a	M	MF003.jpg	MF004.jpg	latino	white
34.71657160000177	1.0167180999997072	feedback_social_win_positive	n/a	n/a	n/a	M	MF003.jpg	MF004.jpg	latino	white
35.7334176999866	2.016353600018192	ITI	n/a	n/a	n/a	M	MF003.jpg	MF004.jpg	latino	white
37.75770560000092	2.502031599986367	decision_social_win	1.337000800005626	7	left	M	MF019.jpg	MF020.jpg	white	latino
40.259905499988236	0.5065453000133857	ISI	n/a	n/a	n/a	M	MF019.jpg	MF020.jpg	white	latino
40.766509199980646	1.0167683000327088	feedback_social_win_positive	n/a	n/a	n/a	M	MF019.jpg	MF020.jpg	white	latino
41.78338530001929	1.016395399987232	ITI	n/a	n/a	n/a	M	MF019.jpg	MF020.jpg	white	latino
42.80776599998353	2.502527899981942	decision_social_loss	1.4358630999922752	2	right	F	FF025.jpg	FF026.jpg	black	latino
45.310463799978606	0.5059793000109494	ISI	n/a	n/a	n/a	F	FF025.jpg	FF026.jpg	black	latino
45.81649900000775	1.01657370000612	feedback_social_loss_negative	n/a	n/a	n/a	F	FF025.jpg	FF026.jpg	black	latino
46.83316999999806	1.016797200019937	ITI	n/a	n/a	n/a	F	FF025.jpg	FF026.jpg	black	latino
47.858195599983446	2.5021496000117622	decision_social_loss	1.0686006000032648	2	right	M	MF027.jpg	MF028.jpg	white	black
50.36051809997298	2.0059089999995194	ISI	n/a	n/a	n/a	M	MF027.jpg	MF028.jpg	white	black
52.36648409999907	1.016775999974925	feedback_social_loss_negative	n/a	n/a	n/a	M	MF027.jpg	MF028.jpg	white	black
53.38335849996656	1.0163716000388376	ITI	n/a	n/a	n/a	M	MF027.jpg	MF028.jpg	white	black
54.40805749996798	2.500941700011026	decision_social_loss	1.9203356000361964	7	left	F	FF031.jpg	FF032.jpg	latino	black
56.90917509997962	1.0072124000289477	ISI	n/a	n/a	n/a	F	FF031.jpg	FF032.jpg	latino	black
57.916446099989116	1.0166390999802388	feedback_social_loss_negative	n/a	n/a	n/a	F	FF031.jpg	FF032.jpg	latino	black
58.93325449997792	1.0164771000272594	ITI	n/a	n/a	n/a	F	FF031.jpg	FF032.jpg	latino	black
59.95811989996582	2.5024137000436895	decision_social_win	0.9522623000084423	2	right	F	FF005.jpg	FF006.jpg	white	asian
62.460705299978144	0.5059119000216015	ISI	n/a	n/a	n/a	F	FF005.jpg	FF006.jpg	white	asian
62.96667529997649	1.016382900008466	feedback_social_win_positive	n/a	n/a	n/a	F	FF005.jpg	FF006.jpg	white	asian
63.98320249997778	4.01650550001068	ITI	n/a	n/a	n/a	F	FF005.jpg	FF006.jpg	white	asian
68.00777919997927	2.5010645000147633	decision_social_win	0.8694065000163391	7	left	F	FF015.jpg	FF016.jpg	black	asian
70.50901779998094	1.5074178000213578	ISI	n/a	n/a	n/a	F	FF015.jpg	FF016.jpg	black	asian
72.01649409998208	1.0167558999964967	feedback_social_win_positive	n/a	n/a	n/a	F	FF015.jpg	FF016.jpg	black	asian
73.03336960001616	1.0163632999756373	ITI	n/a	n/a	n/a	F	FF015.jpg	FF016.jpg	black	asian
74.05824759998359	2.502401900012046	decision_social_win	0.8517800000263378	2	right	M	MF017.jpg	MF018.jpg	white	latino
76.56083129998296	1.00552260002587	ISI	n/a	n/a	n/a	M	MF017.jpg	MF018.jpg	white	latino
77.56641149998177	1.016557199996896	feedback_social_win_positive	n/a	n/a	n/a	M	MF017.jpg	MF018.jpg	white	latino
78.58307970000897	3.0165840999688953	ITI	n/a	n/a	n/a	M	MF017.jpg	MF018.jpg	white	latino
81.6076960999635	2.5021100000012666	decision_social_loss	1.4865275000338443	2	right	F	FF027.jpg	FF028.jpg	latino	asian
84.1099780999939	1.0064171999692917	ISI	n/a	n/a	n/a	F	FF027.jpg	FF028.jpg	latino	asian
85.11645319999661	1.0165759000228718	feedback_social_loss_negative	n/a	n/a	n/a	F	FF027.jpg	FF028.jpg	latino	asian
86.13315539999167	3.016753499978222	ITI	n/a	n/a	n/a	F	FF027.jpg	FF028.jpg	latino	asian
89.15836419997504	2.5010293000377715	decision_social_loss	0.9521403000107966	2	right	M	MF029.jpg	MF030.jpg	white	black
91.65956549998373	2.0068382000317797	ISI	n/a	n/a	n/a	M	MF029.jpg	MF030.jpg	white	black
93.66646310000215	1.0167499000090174	feedback_social_loss_negative	n/a	n/a	n/a	M	MF029.jpg	MF030.jpg	white	black
94.68338810000569	5.016306200006511	ITI	n/a	n/a	n/a	M	MF029.jpg	MF030.jpg	white	black
99.70836330001475	2.5017603999585845	decision_social_loss	0.902080699976068	7	left	F	FF023.jpg	FF024.jpg	white	asian
102.21029700001236	0.5060447999858297	ISI	n/a	n/a	n/a	F	FF023.jpg	FF024.jpg	white	asian
102.71640219999244	1.0165692999726161	feedback_social_loss_negative	n/a	n/a	n/a	F	FF023.jpg	FF024.jpg	white	asian
103.7330797999748	4.000116800016258	ITI	n/a	n/a	n/a	F	FF023.jpg	FF024.jpg	white	asian
107.74151319998782	2.500784499978181	decision_social_win	1.1691332000191323	7	left	M	MF009.jpg	MF010.jpg	latino	asian
110.24247529997956	1.0072305999929085	ISI	n/a	n/a	n/a	M	MF009.jpg	MF010.jpg	latino	asian
111.24976799997967	1.016688300005626	feedback_social_win_neutral	n/a	n/a	n/a	M	MF009.jpg	MF010.jpg	latino	asian
112.26656449999427	1.016422100015916	ITI	n/a	n/a	n/a	M	MF009.jpg	MF010.jpg	latino	asian
113.2913486000034	2.5011156999971718	decision_social_loss	1.1187758999876678	2	right	M	MF033.jpg	MF034.jpg	white	latino
115.7926372999791	0.5070008999900892	ISI	n/a	n/a	n/a	M	MF033.jpg	MF034.jpg	white	latino
116.29969889996573	1.016553700028453	feedback_social_loss_negative	n/a	n/a	n/a	M	MF033.jpg	MF034.jpg	white	latino
117.31636799999978	5.000119799980894	ITI	n/a	n/a	n/a	M	MF033.jpg	MF034.jpg	white	latino
122.32492980000097	2.5012393000070006	decision_social_loss	0.9022459000116214	7	left	M	MF025.jpg	MF026.jpg	white	asian
124.82634049997432	0.5066672000102699	ISI	n/a	n/a	n/a	M	MF025.jpg	MF026.jpg	white	asian
125.33306789997732	1.0165373000199907	feedback_social_loss_negative	n/a	n/a	n/a	M	MF025.jpg	MF026.jpg	white	asian
126.34972120000748	2.016569499974139	ITI	n/a	n/a	n/a	M	MF025.jpg	MF026.jpg	white	asian
128.37466179998592	2.5018597000162117	decision_social_loss	1.1857966000097804	7	left	M	MF035.jpg	MF036.jpg	latino	black
130.87674079998396	1.50643469998613	ISI	n/a	n/a	n/a	M	MF035.jpg	MF036.jpg	latino	black
132.38325189996976	1.0163086000247858	feedback_social_loss_negative	n/a	n/a	n/a	M	MF035.jpg	MF036.jpg	latino	black
133.3996819999884	2.01658320002025	ITI	n/a	n/a	n/a	M	MF035.jpg	MF036.jpg	latino	black
135.42456219997257	2.5007113000028767	decision_social_loss	1.0864593000151217	7	left	M	MF039.jpg	MF040.jpg	black	asian
137.92546749999747	0.5075706000206992	ISI	n/a	n/a	n/a	M	MF039.jpg	MF040.jpg	black	asian
138.43309730000328	1.0167092999909073	feedback_social_loss_neutral	n/a	n/a	n/a	M	MF039.jpg	MF040.jpg	black	asian
139.4500146000064	4.016253400011919	ITI	n/a	n/a	n/a	M	MF039.jpg	MF040.jpg	black	asian
143.4748258999898	2.50063379999483	decision_social_loss	1.186398999998346	2	right	M	MF031.jpg	MF032.jpg	latino	white
145.9756411999697	1.0072928000008687	ISI	n/a	n/a	n/a	M	MF031.jpg	MF032.jpg	latino	white
146.98299170000246	1.016579199989792	feedback_social_loss_negative	n/a	n/a	n/a	M	MF031.jpg	MF032.jpg	latino	white
147.99968680000165	2.016580499999691	ITI	n/a	n/a	n/a	M	MF031.jpg	MF032.jpg	latino	white
150.02488189999713	2.5006125000072643	decision_social_win	0.9687320999801159	7	left	F	FF009.jpg	FF010.jpg	asian	white
152.52566939999815	0.5074565999675542	ISI	n/a	n/a	n/a	F	FF009.jpg	FF010.jpg	asian	white
153.03318430000218	1.0164007999701425	feedback_social_win_neutral	n/a	n/a	n/a	F	FF009.jpg	FF010.jpg	asian	white
154.04971930000465	2.016532299981918	ITI	n/a	n/a	n/a	F	FF009.jpg	FF010.jpg	asian	white
156.07515809999313	2.502252899983432	decision_social_loss	1.318675999995321	2	right	F	FF033.jpg	FF034.jpg	black	white
158.57758819998708	0.5053763000178151	ISI	n/a	n/a	n/a	F	FF033.jpg	FF034.jpg	black	white
159.08302510000067	1.0167180999997072	feedback_social_loss_negative	n/a	n/a	n/a	F	FF033.jpg	FF034.jpg	black	white
160.09985870000673	3.0163513000006787	ITI	n/a	n/a	n/a	F	FF033.jpg	FF034.jpg	black	white
163.12441360001685	2.502307999995537	decision_social_win	1.369165999989491	7	left	F	FF011.jpg	FF012.jpg	white	latino
165.6269090999849	0.5059602999826893	ISI	n/a	n/a	n/a	F	FF011.jpg	FF012.jpg	white	latino
166.13292619999265	1.0166396999848075	feedback_social_win_neutral	n/a	n/a	n/a	F	FF011.jpg	FF012.jpg	white	latino
167.149701599963	4.016732200048864	ITI	n/a	n/a	n/a	F	FF011.jpg	FF012.jpg	white	latino
171.17523749999236	2.5019179999944754	decision_social_loss	0.91908899997361	2	right	F	FF021.jpg	FF022.jpg	black	latino
173.67733989999397	0.5055844999733381	ISI	n/a	n/a	n/a	F	FF021.jpg	FF022.jpg	black	latino
174.1829854999669	1.016541999997571	feedback_social_loss_negative	n/a	n/a	n/a	F	FF021.jpg	FF022.jpg	black	latino
175.19971139996778	5.016728300019167	ITI	n/a	n/a	n/a	F	FF021.jpg	FF022.jpg	black	latino
180.22487320000073	2.5017621999722905	decision_social_win	1.1518181000137702	7	left	F	FF003.jpg	FF004.jpg	black	white
182.72682310000528	2.006044199981261	ISI	n/a	n/a	n/a	F	FF003.jpg	FF004.jpg	black	white
184.73292549996404	1.016772300004959	feedback_social_win_positive	n/a	n/a	n/a	F	FF003.jpg	FF004.jpg	black	white
185.74982600001385	1.0163490999839269	ITI	n/a	n/a	n/a	F	FF003.jpg	FF004.jpg	black	white
186.77446479996433	2.5020329000544734	decision_social_win	0.9700446000206284	2	right	F	FF007.jpg	FF008.jpg	asian	black
189.27668569999514	1.0061799999675713	ISI	n/a	n/a	n/a	F	FF007.jpg	FF008.jpg	asian	black
190.2829255000106	1.0165339999948628	feedback_social_win_positive	n/a	n/a	n/a	F	FF007.jpg	FF008.jpg	asian	black
191.29958429996623	1.016576400026679	ITI	n/a	n/a	n/a	F	FF007.jpg	FF008.jpg	asian	black
192.3251627999707	2.502056099998299	decision_social_win	1.2854576000245288	2	right	M	MF021.jpg	MF022.jpg	black	latino
194.82741689996328	1.5056010000407696	ISI	n/a	n/a	n/a	M	MF021.jpg	MF022.jpg	black	latino
196.33307559997775	1.0163423999911174	feedback_social_win_positive	n/a	n/a	n/a	M	MF021.jpg	MF022.jpg	black	latino
197.34954149997793	1.016548999992665	ITI	n/a	n/a	n/a	M	MF021.jpg	MF022.jpg	black	latino
198.37452820001636	2.501261900004465	decision_social_win	1.534911299997475	7	left	F	FF013.jpg	FF014.jpg	white	black
200.8759776999941	0.5068127000122331	ISI	n/a	n/a	n/a	F	FF013.jpg	FF014.jpg	white	black
201.38284829998156	1.0168064000317827	feedback_social_win_neutral	n/a	n/a	n/a	F	FF013.jpg	FF014.jpg	white	black
202.39981769997394	3.0163115999894217	ITI	n/a	n/a	n/a	F	FF013.jpg	FF014.jpg	white	black
205.4249755999772	2.5007346000056714	decision_social_win	1.2687338000396267	7	left	F	FF019.jpg	FF020.jpg	latino	asian
207.92589929996757	0.5069098999956623	ISI	n/a	n/a	n/a	F	FF019.jpg	FF020.jpg	latino	asian
208.43286709999666	1.0165814000065438	feedback_social_win_positive	n/a	n/a	n/a	F	FF019.jpg	FF020.jpg	latino	asian
209.4495709000039	5.000028099981137	ITI	n/a	n/a	n/a	F	FF019.jpg	FF020.jpg	latino	asian
214.48793080000905	2.50221559999045	decision_social_loss	1.139950399985537	2	right	F	FF039.jpg	FF040.jpg	white	black
216.99033080000663	2.009154499974102	ISI	n/a	n/a	n/a	F	FF039.jpg	FF040.jpg	white	black
218.9995423000073	1.0165541999740526	feedback_social_loss_neutral	n/a	n/a	n/a	F	FF039.jpg	FF040.jpg	white	black
220.0162202999927	2.0165520000155084	ITI	n/a	n/a	n/a	F	FF039.jpg	FF040.jpg	white	black
222.0412833999726	2.5012234000023454	decision_social_loss	1.4687204000074416	2	right	F	FF035.jpg	FF036.jpg	latino	black
224.54270360001829	0.506943299958948	ISI	n/a	n/a	n/a	F	FF035.jpg	FF036.jpg	latino	black
225.04970839997986	1.0163479000329971	feedback_social_loss_neutral	n/a	n/a	n/a	F	FF035.jpg	FF036.jpg	latino	black
226.0661834999919	1.0165838000248186	ITI	n/a	n/a	n/a	F	FF035.jpg	FF036.jpg	latino	black
227.09117119997973	2.5019956000032835	decision_social_loss	0.9702354000182822	7	left	F	FF041.jpg	FF042.jpg	latino	white
229.59335510001983	0.5061284999828786	ISI	n/a	n/a	n/a	F	FF041.jpg	FF042.jpg	latino	white
230.09954089997336	1.0167521000257693	feedback_social_loss_neutral	n/a	n/a	n/a	F	FF041.jpg	FF042.jpg	latino	white
231.11647900001844	2.016274199995678	ITI	n/a	n/a	n/a	F	FF041.jpg	FF042.jpg	latino	white
233.1412280999939	2.5019928999827243	decision_social_win	0.9351643000263721	2	right	M	MF001.jpg	MF002.jpg	black	asian
235.64342019998003	0.5060555000090972	ISI	n/a	n/a	n/a	M	MF001.jpg	MF002.jpg	black	asian
236.14953379996587	1.0167502000113018	feedback_social_win_positive	n/a	n/a	n/a	M	MF001.jpg	MF002.jpg	black	asian
237.16641659999732	1.016326899989508	ITI	n/a	n/a	n/a	M	MF001.jpg	MF002.jpg	black	asian
238.19126449996838	2.5010161999962293	decision_social_win	0.9019347000285052	2	right	M	MF005.jpg	MF006.jpg	white	black
240.69249410001794	1.5069784999941476	ISI	n/a	n/a	n/a	M	MF005.jpg	MF006.jpg	white	black
242.19953189999796	1.016521300014574	feedback_social_win_positive	n/a	n/a	n/a	M	MF005.jpg	MF006.jpg	white	black
243.21617989998776	1.0167632999946363	ITI	n/a	n/a	n/a	M	MF005.jpg	MF006.jpg	white	black
244.24145119998138	2.5013783000176772	decision_social_loss	0.8690643000300042	2	right	F	FF037.jpg	FF038.jpg	latino	latino
246.743022700015	2.006400699960068	ISI	n/a	n/a	n/a	F	FF037.jpg	FF038.jpg	latino	latino
248.7494810000062	1.0167652000091039	feedback_social_loss_neutral	n/a	n/a	n/a	F	FF037.jpg	FF038.jpg	latino	latino
249.76639349997276	1.0163685000152327	ITI	n/a	n/a	n/a	F	FF037.jpg	FF038.jpg	latino	latino
250.79138110001804	2.502354899945203	decision_social_win	1.469157199957408	2	right	F	FF017.jpg	FF018.jpg	asian	asian
253.29392789996928	1.5054984000162221	ISI	n/a	n/a	n/a	F	FF017.jpg	FF018.jpg	asian	asian
254.79948489996605	1.016516700037755	feedback_social_win_positive	n/a	n/a	n/a	F	FF017.jpg	FF018.jpg	asian	asian
255.81613059999654	1.9999785000109114	ITI	n/a	n/a	n/a	F	FF017.jpg	FF018.jpg	asian	asian
257.82516499998746	2.501924999989569	decision_social_win	1.0353323000017554	2	right	M	MF011.jpg	MF012.jpg	latino	black
260.32728580001276	0.5054655999992974	ISI	n/a	n/a	n/a	M	MF011.jpg	MF012.jpg	latino	black
260.832808999985	1.016544400015846	feedback_social_win_neutral	n/a	n/a	n/a	M	MF011.jpg	MF012.jpg	latino	black
261.8494836000027	1.016532499983441	ITI	n/a	n/a	n/a	M	MF011.jpg	MF012.jpg	latino	black
262.87474220001604	2.5019908999674954	decision_social_loss	1.0694591999636032	2	right	M	MF041.jpg	MF042.jpg	white	asian
265.37692890001927	2.0057947999448515	ISI	n/a	n/a	n/a	M	MF041.jpg	MF042.jpg	white	asian
267.38278129999526	1.0165604000212625	feedback_social_loss_neutral	n/a	n/a	n/a	M	MF041.jpg	MF042.jpg	white	asian
268.39947559998836	3.016751800023485	ITI	n/a	n/a	n/a	M	MF041.jpg	MF042.jpg	white	asian
271.42484170000535	2.5017273999983445	decision_social_loss	1.401804099965375	7	left	M	MF037.jpg	MF038.jpg	asian	latino
273.9267693000147	0.5059930999996141	ISI	n/a	n/a	n/a	M	MF037.jpg	MF038.jpg	asian	latino
274.4328227000078	1.016537299961783	feedback_social_loss_neutral	n/a	n/a	n/a	M	MF037.jpg	MF038.jpg	asian	latino
275.4495087999967	1.0164468999719247	ITI	n/a	n/a	n/a	M	MF037.jpg	MF038.jpg	asian	latino
276.474723399966	2.502329000039026	decision_social_win	1.4196274999994785	2	right	F	FF001.jpg	FF002.jpg	latino	black
278.97724559996277	2.005451000004541	ISI	n/a	n/a	n/a	F	FF001.jpg	FF002.jpg	latino	black
280.9827530999901	1.0165352000040002	feedback_social_win_positive	n/a	n/a	n/a	F	FF001.jpg	FF002.jpg	latino	black
281.999422999972	5.000085200008471	ITI	n/a	n/a	n/a	F	FF001.jpg	FF002.jpg	latino	black
287.00872959999833	2.501437500002794	decision_social_win	1.3857150999829173	2	right	M	MF007.jpg	MF008.jpg	asian	white
289.5103824000107	0.5056986999697983	ISI	n/a	n/a	n/a	M	MF007.jpg	MF008.jpg	asian	white
290.0161403999664	1.0165051000076346	feedback_social_win_neutral	n/a	n/a	n/a	M	MF007.jpg	MF008.jpg	asian	white
291.0327831999748	6.016521300014574	ITI	n/a	n/a	n/a	M	MF007.jpg	MF008.jpg	asian	white
