onset	duration	trial_type	rt	resp	selection	gender	image	image_type
0.0	1.0	ISI	n/a	n/a	n/a	n/a	n/a	n/a
1.0209381000022404	2.7512449999921955	decision_monetary	2.3428041999577545	8	predict_win	S	SD036.jpg	black
3.772547199972905	1.7645600999821909	ISI	n/a	n/a	n/a	S	SD036.jpg	black
5.542078199971002	2.752319000021089	decision_monetary	2.208781599998474	1	recall_win	D	DD029.jpg	brown
8.294753299967851	2.0130382000352256	ISI	n/a	n/a	n/a	D	DD029.jpg	brown
10.312874800001737	2.751956899999641	decision_monetary	2.107178699981887	1	recall_win	S	SD008.jpg	blue
13.065198600001168	6.500442899996415	ISI	n/a	n/a	n/a	S	SD008.jpg	blue
19.570723099983297	2.75182710000081	decision_monetary	2.0078208000049926	2	recall_loss	D	DD006.jpg	brown
22.322919199999887	1.0125674000009894	ISI	n/a	n/a	n/a	D	DD006.jpg	brown
23.340752299991436	2.7522236999939196	decision_monetary	2.3080116999917664	2	recall_loss	D	DD022.jpg	blue
26.093387499975506	1.5124661999871023	ISI	n/a	n/a	n/a	D	DD022.jpg	blue
27.611146999988705	2.7532600999693386	decision_monetary	2.1934478000039235	2	recall_loss	S	SD004.jpg	white
30.364847299992107	4.514826399972662	ISI	n/a	n/a	n/a	S	SD004.jpg	white
34.885502199991606	2.7528324999730103	decision_monetary	2.139900400012266	2	recall_loss	S	SD019.jpg	brown
37.63872849999461	1.0103977000107989	ISI	n/a	n/a	n/a	S	SD019.jpg	brown
38.66584289999446	2.751213799987454	decision_monetary	2.4277127999812365	9	predict_loss	S	SD005.jpg	black
41.417423099977896	3.002213399973698	ISI	n/a	n/a	n/a	S	SD005.jpg	black
44.42479339998681	2.7516906000091694	decision_monetary	1.0417386000044644	9	predict_loss	D	DD020.jpg	brown
47.17684139998164	2.763767199998256	ISI	n/a	n/a	n/a	D	DD020.jpg	brown
49.94548019999638	2.751852399960626	decision_monetary	2.240643800003454	2	recall_loss	S	SD021.jpg	blue
52.69769709999673	1.0128340999945067	ISI	n/a	n/a	n/a	S	SD021.jpg	blue
53.71540729998378	2.775881199981086	decision_monetary	2.7755193000193685	3	recall_neutral	S	SD003.jpg	yellow
56.49178829998709	1.255330200016033	ISI	n/a	n/a	n/a	S	SD003.jpg	yellow
57.75215959997149	2.75109189999057	decision_monetary	1.5245311000035144	2	recall_loss	S	SD012.jpg	brown
60.50361419998808	2.7648686000029556	ISI	n/a	n/a	n/a	S	SD012.jpg	brown
63.273323600005824	2.7524680999922566	decision_monetary	2.7255690999445505	9	predict_loss	D	DD008.jpg	blue
66.02619889995549	3.76389600004768	ISI	n/a	n/a	n/a	D	DD008.jpg	blue
69.79514119995292	2.75179599999683	decision_monetary	2.141096400038805	3	recall_neutral	S	SD017.jpg	blue
72.54729639994912	1.5131792000029236	ISI	n/a	n/a	n/a	S	SD017.jpg	blue
74.06559489999199	2.763737500004936	decision_monetary_MISSED	missed	missed	missed	S	SD024.jpg	blue
76.82971369998995	4.0007378999725915	ISI	0.26748069998575374	9	predict_loss	S	SD024.jpg	blue
80.83551889995579	2.751472100033425	decision_monetary	2.709589300036896	9	predict_loss	S	SD040.jpg	brown
83.58738549996633	1.0150867000338621	ISI	n/a	n/a	n/a	S	SD040.jpg	brown
84.60756119998405	2.7514889999874867	decision_monetary	1.3242750000208616	9	predict_loss	S	SD023.jpg	blue
87.35941839998122	1.2630185000016354	ISI	n/a	n/a	n/a	S	SD023.jpg	blue
88.62760529998923	2.7637516999966465	decision_monetary_MISSED	missed	missed	missed	D	DD010.jpg	green
91.39177049999125	1.7514523999998346	ISI	0.33397799998056144	8	predict_win	D	DD010.jpg	green
93.14806819998194	2.7505857999785803	decision_monetary	1.7074142000055872	3	recall_neutral	S	SD030.jpg	red
95.89902519999305	5.750915199983865	ISI	n/a	n/a	n/a	S	SD030.jpg	red
101.65511309995782	2.7505513000069186	decision_monetary	1.8069498999975622	8	predict_win	S	SD025.jpg	green
104.406024899974	1.2637154000112787	ISI	n/a	n/a	n/a	S	SD025.jpg	green
105.6749395999941	2.7509329000022262	decision_monetary	1.739795800007414	3	recall_neutral	D	DD016.jpg	brown
108.42624929995509	3.014974399993662	ISI	n/a	n/a	n/a	D	DD016.jpg	brown
111.44656929996563	2.7640099999844097	decision_monetary_MISSED	missed	missed	missed	D	DD018.jpg	brown
114.210970599961	1.0003860000288114	ISI	n/a	n/a	n/a	D	DD018.jpg	brown
115.2166023000027	2.751792699971702	decision_monetary	1.5733561999513768	9	predict_loss	D	DD004.jpg	blue
117.96875969995745	6.250022399995942	ISI	n/a	n/a	n/a	D	DD004.jpg	blue
124.22405199997593	2.7525338000268675	decision_monetary	2.0246359999873675	8	predict_win	D	DD019.jpg	blue
126.97695229999954	1.0112722999765538	ISI	n/a	n/a	n/a	D	DD019.jpg	blue
127.9934945999994	2.775661499996204	decision_monetary	2.775204399949871	9	predict_loss	S	SD007.jpg	brown
130.77000999997836	1.7555484999902546	ISI	n/a	n/a	n/a	S	SD007.jpg	brown
132.53067609999562	2.7509073999826796	decision_monetary	2.3582654999918304	8	predict_win	D	DD014.jpg	green
135.28194249997614	5.750532899983227	ISI	n/a	n/a	n/a	D	DD014.jpg	green
141.03758809994906	2.7513307000044733	decision_monetary	2.124891600047704	9	predict_loss	S	SD029.jpg	black
143.78928719996475	1.5133227999904193	ISI	n/a	n/a	n/a	S	SD029.jpg	black
145.30765269999392	2.752343399974052	decision_monetary	2.4241356999846175	9	predict_loss	D	DD007.jpg	blue
148.0603556999704	3.7643954000086524	ISI	n/a	n/a	n/a	D	DD007.jpg	blue
151.82978799997363	2.7521607999806292	decision_monetary	1.3399670000071637	9	predict_loss	D	DD003.jpg	green
154.58230449998518	1.2624771000118926	ISI	n/a	n/a	n/a	D	DD003.jpg	green
155.84998159995303	2.751570900029037	decision_monetary	1.5562135000363924	8	predict_win	S	SD037.jpg	red
158.60191109997686	2.0133523999829777	ISI	n/a	n/a	n/a	S	SD037.jpg	red
160.62038409995148	2.751017500006128	decision_monetary	1.5402663000277244	8	predict_win	S	SD010.jpg	yellow
163.3717661999981	3.0147889999789186	ISI	n/a	n/a	n/a	S	SD010.jpg	yellow
166.39169449999463	2.750763099989854	decision_monetary	1.4412515999865718	9	predict_loss	S	SD038.jpg	brown
169.14282319997437	3.515859499981161	ISI	n/a	n/a	n/a	S	SD038.jpg	brown
172.6637650000048	2.752190299972426	decision_monetary	2.6086072999751195	9	predict_loss	D	DD023.jpg	blue
175.4163203999633	6.016118400031701	ISI	n/a	n/a	n/a	D	DD023.jpg	blue
181.43761209998047	2.7516770000220276	decision_monetary	1.7913240999914706	9	predict_loss	S	SD001.jpg	green
184.18964699999196	1.2628063999582082	ISI	n/a	n/a	n/a	S	SD001.jpg	green
185.4576498999959	2.7505533999647014	decision_monetary	2.3417108999565244	8	predict_win	D	DD037.jpg	brown
188.20863059995463	1.2639055000036024	ISI	n/a	n/a	n/a	D	DD037.jpg	brown
189.47786659997655	2.7522554000024684	decision_monetary	2.457024800009094	8	predict_win	S	SD015.jpg	yellow
192.23048009997	1.261914600036107	ISI	n/a	n/a	n/a	S	SD015.jpg	yellow
193.49763739999617	2.7505887000006624	decision_monetary	2.7405465999618173	9	predict_loss	S	SD041.jpg	brown
196.24862919998122	5.750771699997131	ISI	n/a	n/a	n/a	S	SD041.jpg	brown
202.0046686999849	2.7520494000054896	decision_monetary	1.4898478999966756	9	predict_loss	D	DD026.jpg	white
204.7570838999818	2.764047799981199	ISI	n/a	n/a	n/a	D	DD026.jpg	white
207.52679429994896	2.7511957000242546	decision_monetary	1.9227507000323385	9	predict_loss	S	SD018.jpg	green
210.27835679997224	2.5131006999872625	ISI	n/a	n/a	n/a	S	SD018.jpg	green
212.7966105999658	2.751105000032112	decision_monetary	2.291955200023949	8	predict_win	S	SD009.jpg	blue
215.54807299998356	2.7650280999951065	ISI	n/a	n/a	n/a	S	SD009.jpg	blue
218.3185124999727	2.751265799975954	decision_monetary	1.1398717000265606	8	predict_win	D	DD031.jpg	pink
221.07013999996707	1.2627271999954246	ISI	n/a	n/a	n/a	D	DD031.jpg	pink
222.33885629998986	2.7510824999772012	decision_monetary	2.6244212999590673	8	predict_win	S	SD035.jpg	blue
225.09030489996076	3.014025400043465	ISI	n/a	n/a	n/a	S	SD035.jpg	blue
228.10957929998403	2.751414400001522	decision_monetary	2.1233778999885544	9	predict_loss	S	SD026.jpg	gray
230.86135999998078	1.01280789996963	ISI	n/a	n/a	n/a	S	SD026.jpg	gray
231.87960129999556	2.7513443999923766	decision_monetary	1.0070594999706373	9	predict_loss	D	DD017.jpg	red
234.63129940000363	3.2644213999737985	ISI	n/a	n/a	n/a	D	DD017.jpg	red
237.9009703999618	2.752380300022196	decision_monetary	1.707369000010658	8	predict_win	S	SD002.jpg	purple
240.6537159999716	1.0118092999910004	ISI	n/a	n/a	n/a	S	SD002.jpg	purple
241.6708718999871	2.7522284999722615	decision_monetary	2.5239575000014156	8	predict_win	D	DD038.jpg	brown
244.42346619995078	1.762470800022129	ISI	n/a	n/a	n/a	D	DD038.jpg	brown
246.19131659995764	2.7507761000306346	decision_monetary	1.2905449999962002	0	predict_neutral	D	DD024.jpg	white
248.94245529995533	1.5136836000019684	ISI	n/a	n/a	n/a	D	DD024.jpg	white
250.46154739998747	2.763532300014049	decision_monetary_MISSED	missed	missed	missed	D	DD011.jpg	brown
253.22545159998117	1.2507113000028767	ISI	0.01740269997389987	1	recall_win	D	DD011.jpg	brown
254.48133769998094	2.7522081999923103	decision_monetary	2.2415990000008605	9	predict_loss	D	DD009.jpg	white
257.2339071999886	3.7641331999911927	ISI	n/a	n/a	n/a	D	DD009.jpg	white
261.003455099999	2.751149599964265	decision_monetary	2.5405958999763243	9	predict_loss	D	DD041.jpg	brown
263.75496709998697	1.0128186999936588	ISI	n/a	n/a	n/a	D	DD041.jpg	brown
264.773189599975	2.7528869999805465	decision_monetary	2.6092024000245146	0	predict_neutral	D	DD005.jpg	brown
267.5264405999915	3.012882200011518	ISI	n/a	n/a	n/a	D	DD005.jpg	brown
270.5447875999962	2.751830599969253	decision_monetary	2.6747209999593906	9	predict_loss	D	DD042.jpg	brown
273.2970193999936	2.263127399957739	ISI	n/a	n/a	n/a	D	DD042.jpg	brown
275.5655971999513	2.7519802000024356	decision_monetary	1.5574058000347577	9	predict_loss	D	DD036.jpg	brown
278.3179438999505	1.012135200027842	ISI	n/a	n/a	n/a	D	DD036.jpg	brown
279.3356147999875	2.751396499981638	decision_monetary	2.4911959000164643	0	predict_neutral	S	SD013.jpg	blue
282.08737689995905	6.516723300039303	ISI	n/a	n/a	n/a	S	SD013.jpg	blue
288.6095418999903	2.7521478999988176	decision_monetary	2.2575607000035234	9	predict_loss	D	DD040.jpg	black
291.3620555999805	5.01550669997232	ISI	n/a	n/a	n/a	D	DD040.jpg	black
296.38380119996145	2.752208099991549	decision_monetary	2.3060154000413604	9	predict_loss	D	DD039.jpg	white
299.136375699949	2.0118248000508174	ISI	n/a	n/a	n/a	D	DD039.jpg	white
301.15366729995003	2.750619700003881	decision_monetary	2.3241029000491835	8	predict_win	D	DD021.jpg	red
303.904654199956	3.26477440004237	ISI	n/a	n/a	n/a	D	DD021.jpg	red
307.1748459999799	2.750841800007038	decision_monetary	1.590983400004916	9	predict_loss	S	SD016.jpg	brown
309.9260882999515	5.266670200042427	ISI	n/a	n/a	n/a	S	SD016.jpg	brown
315.19857750000665	2.7515719999792054	decision_monetary	2.457145099993795	8	predict_win	D	DD015.jpg	blue
317.9505229999777	2.01283570000669	ISI	n/a	n/a	n/a	D	DD015.jpg	blue
319.9688924999791	2.751253700000234	decision_monetary	2.3070661000092514	0	predict_neutral	S	SD032.jpg	purple
322.7205121999723	6.250396199990064	ISI	n/a	n/a	n/a	S	SD032.jpg	purple
328.97673679998843	2.75093039998319	decision_monetary	2.6411197999841534	8	predict_win	D	DD012.jpg	brown
331.72803939995356	2.514047800039407	ISI	n/a	n/a	n/a	D	DD012.jpg	brown
334.2475846000016	2.751003099954687	decision_monetary	1.7391975999926217	0	predict_neutral	D	DD035.jpg	brown
336.99895639996976	1.2629284000140615	ISI	n/a	n/a	n/a	D	DD035.jpg	brown
338.2673434999888	2.751747799979057	decision_monetary	1.4893693999620155	9	predict_loss	S	SD014.jpg	black
341.01946539996425	2.763634200033266	ISI	n/a	n/a	n/a	S	SD014.jpg	black
343.7885364999529	2.7511126000317745	decision_monetary	1.8739386000088416	1	recall_win	S	SD031.jpg	red
346.54001399996923	1.5132413000101224	ISI	n/a	n/a	n/a	S	SD031.jpg	red
348.0587242000038	2.750954699993599	decision_monetary	2.440439799975138	0	predict_neutral	S	SD022.jpg	red
350.8100470000063	3.7652664999477565	ISI	n/a	n/a	n/a	S	SD022.jpg	red
354.5808275999734	2.7512257000198588	decision_monetary	2.4081645000260323	9	predict_loss	D	DD025.jpg	brown
357.332411099982	2.013398299983237	ISI	n/a	n/a	n/a	D	DD025.jpg	brown
359.35133619996486	2.7513195000356063	decision_monetary	2.424375600006897	8	predict_win	S	SD028.jpg	grey
362.1030297999969	3.764885999960825	ISI	n/a	n/a	n/a	S	SD028.jpg	grey
365.8734182000044	2.751724799978547	decision_monetary	2.27328339999076	2	recall_loss	S	SD011.jpg	blue
368.6255104999873	6.501266199979	ISI	n/a	n/a	n/a	S	SD011.jpg	blue
375.13242249999894	2.762172999966424	decision_monetary_MISSED	missed	missed	missed	D	DD002.jpg	brown
377.89494399999967	2.2518209999543615	ISI	0.36748269997769967	9	predict_loss	D	DD002.jpg	brown
380.15223369997693	2.7508848999859765	decision_monetary	1.5069297999725677	9	predict_loss	D	DD030.jpg	brown
382.90347709995694	1.012782200006768	ISI	n/a	n/a	n/a	D	DD030.jpg	brown
383.92183939996175	2.7515229000127874	decision_monetary	1.4394155000336468	9	predict_loss	S	SD006.jpg	black
386.6737286999705	4.014706999994814	ISI	n/a	n/a	n/a	S	SD006.jpg	black
390.6940426999936	2.7508374999742955	decision_monetary	2.106506099982653	8	predict_win	D	DD033.jpg	red
393.4452386999619	2.263914700015448	ISI	n/a	n/a	n/a	D	DD033.jpg	red
395.714780099981	2.7515220000059344	decision_monetary	1.7404588999925181	0	predict_neutral	S	SD020.jpg	green
398.46666949999053	2.513578000012785	ISI	n/a	n/a	n/a	S	SD020.jpg	green
400.9859324999852	2.752166499965824	decision_monetary	1.6896161999902688	8	predict_win	S	SD033.jpg	brown
403.7384625999839	2.7629529999685474	ISI	n/a	n/a	n/a	S	SD033.jpg	brown
406.50703199999407	2.751991499972064	decision_monetary	1.7235222999588586	8	predict_win	D	DD001.jpg	blue
409.25939599995036	5.5155844000400975	ISI	n/a	n/a	n/a	D	DD001.jpg	blue
414.78077969996957	2.750827700016089	decision_monetary	2.00756649998948	0	predict_neutral	S	SD027.jpg	green
417.5319738999824	1.7634144999901764	ISI	n/a	n/a	n/a	S	SD027.jpg	green
419.3011214999715	2.7507761000306346	decision_monetary	2.0064452000078745	8	predict_win	D	DD028.jpg	red
422.052263199992	2.2639182999846525	ISI	n/a	n/a	n/a	D	DD028.jpg	red
424.3227167999721	2.7522510000271723	decision_monetary	1.688409700000193	0	predict_neutral	D	DD013.jpg	brown
427.075333899993	5.514669500000309	ISI	n/a	n/a	n/a	D	DD013.jpg	brown
432.59571079997113	2.7505948999896646	decision_monetary	2.2070569000206888	9	predict_loss	S	SD034.jpg	red
435.3466688999906	1.5131197000155225	ISI	n/a	n/a	n/a	S	SD034.jpg	red
436.86543789994903	2.7512232000008225	decision_monetary	1.1893844000296667	0	predict_neutral	S	SD042.jpg	purple
439.617028699955	3.264426600013394	ISI	n/a	n/a	n/a	S	SD042.jpg	purple
442.8872535999981	2.750678699987475	decision_monetary	2.573185099987313	8	predict_win	D	DD032.jpg	red
445.63830130000133	2.0139750999514945	ISI	n/a	n/a	n/a	D	DD032.jpg	red
447.65796109999064	2.750365999992937	decision_monetary	2.0075276999850757	8	predict_win	D	DD027.jpg	blue
450.40869429998565	4.766286599973682	ISI	n/a	n/a	n/a	D	DD027.jpg	blue
455.1807821999537	2.75069200003054	decision_monetary	2.056436500046402	0	predict_neutral	D	DD034.jpg	purple
457.9318310999661	2.514078500040341	ISI	n/a	n/a	n/a	D	DD034.jpg	purple
460.4517410999979	2.7514549999614246	decision_monetary	2.4564674999564886	0	predict_neutral	S	SD039.jpg	blue
463.20356160000665	1.5126545999664813	ISI	n/a	n/a	n/a	S	SD039.jpg	blue
