onset	duration	trial_type	rt	resp	selection	gender	image	image_type
0.0	1.0	ISI	n/a	n/a	n/a	n/a	n/a	n/a
1.0192514000227675	2.7520250000525266	decision_monetary	1.8740909000625834	8	predict_loss	D	DD005.jpg	brown
3.7715770000359043	1.0110015999525785	ISI	n/a	n/a	n/a	D	DD005.jpg	brown
4.786155199981295	2.751344499993138	decision_monetary	1.7064707000972703	3	recall_loss	S	SD016.jpg	brown
7.537802400067449	1.2613093999680132	ISI	n/a	n/a	n/a	S	SD016.jpg	brown
8.802543699974194	2.7511203000321984	decision_monetary	1.2410890000173822	3	recall_loss	S	SD023.jpg	blue
11.553973200032488	6.511793000041507	ISI	n/a	n/a	n/a	S	SD023.jpg	blue
18.06934300006833	2.7519393999828026	decision_monetary	1.6572497999295592	9	predict_win	S	SD015.jpg	yellow
20.82158290001098	2.7607956000138074	ISI	n/a	n/a	n/a	S	SD015.jpg	yellow
23.58575289999135	2.7506333000492305	decision_monetary	2.257894100039266	7	predict_neutral	D	DD020.jpg	brown
26.336713000084274	5.2624786999076605	ISI	n/a	n/a	n/a	D	DD020.jpg	brown
31.603145000059158	2.7504870999837294	decision_monetary	1.1909998999908566	2	recall_win	S	SD003.jpg	yellow
34.35403619997669	6.011708000092767	ISI	n/a	n/a	n/a	S	SD003.jpg	yellow
40.36910370003898	2.75047850003466	decision_monetary	2.2245017000241205	9	predict_win	S	SD033.jpg	brown
43.11990190006327	1.0125090000219643	ISI	n/a	n/a	n/a	S	SD033.jpg	brown
44.13582249998581	2.7513922000071034	decision_monetary	1.8576782000018284	2	recall_win	S	SD019.jpg	brown
46.887577400077134	5.51136719994247	ISI	n/a	n/a	n/a	S	SD019.jpg	brown
52.402723900042474	2.751003099954687	decision_monetary	1.1733988999621943	9	predict_win	D	DD021.jpg	red
55.154052900034	1.5115275999996811	ISI	n/a	n/a	n/a	D	DD021.jpg	red
56.66905859997496	2.75058870005887	decision_monetary	1.8573923000367358	2	recall_win	D	DD010.jpg	green
59.41996259998996	3.762279100017622	ISI	n/a	n/a	n/a	D	DD010.jpg	green
63.18595010007266	2.750293399905786	decision_monetary	1.8571250999812037	8	predict_loss	D	DD038.jpg	brown
65.93665839999449	1.5124240000732243	ISI	n/a	n/a	n/a	D	DD038.jpg	brown
67.45255070005078	2.7506604000227526	decision_monetary	2.0745287999743596	2	recall_win	S	SD020.jpg	green
70.20353240007535	2.262033100007102	ISI	n/a	n/a	n/a	S	SD020.jpg	green
72.46904750005342	2.750539999920875	decision_monetary	1.3915346999419853	3	recall_loss	S	SD041.jpg	brown
75.21990590007044	4.512324400013313	ISI	n/a	n/a	n/a	S	SD041.jpg	brown
79.73597949999385	2.7505893000634387	decision_monetary	2.3734783000545576	8	predict_loss	S	SD007.jpg	brown
82.48689559998456	1.5122129000956193	ISI	n/a	n/a	n/a	S	SD007.jpg	brown
84.00263900007121	2.75088029995095	decision_monetary	1.0236558999167755	2	recall_win	S	SD032.jpg	purple
86.75384370004758	3.7616057000122964	ISI	n/a	n/a	n/a	S	SD032.jpg	purple
90.51949480001349	2.7514344999799505	decision_monetary	2.5409292000113055	3	recall_loss	S	SD012.jpg	brown
93.27125119999982	1.5109646000200883	ISI	n/a	n/a	n/a	S	SD012.jpg	brown
94.78584969998337	2.751151100033894	decision_monetary	1.4576153000816703	3	recall_loss	D	DD017.jpg	red
97.53732060000766	5.761522800079547	ISI	n/a	n/a	n/a	D	DD017.jpg	red
103.30241730005946	2.750600399915129	decision_monetary	1.207667600014247	8	predict_loss	S	SD039.jpg	blue
106.05336140003055	5.762101000058465	ISI	n/a	n/a	n/a	S	SD039.jpg	blue
111.81902290007565	2.750880799954757	decision_monetary	1.5913177999900654	2	recall_win	D	DD006.jpg	brown
114.57023190008476	3.011855899938382	ISI	n/a	n/a	n/a	D	DD006.jpg	brown
117.58566330000758	2.7510992999887094	decision_monetary	1.6736117000691593	9	predict_win	S	SD002.jpg	purple
120.33708570001181	5.511639600037597	ISI	n/a	n/a	n/a	S	SD002.jpg	purple
125.85227700008545	2.7522017000010237	decision_monetary	1.7066243999870494	3	recall_loss	S	SD030.jpg	red
128.60481300007086	2.2606392999878153	ISI	n/a	n/a	n/a	S	SD030.jpg	red
130.8691426999867	2.750924100051634	decision_monetary	1.8397411000914872	2	recall_win	S	SD021.jpg	blue
133.6203885000432	1.2615674999542534	ISI	n/a	n/a	n/a	S	SD021.jpg	blue
134.8856445000274	2.750800700043328	decision_monetary	1.1398287999909371	9	predict_win	D	DD029.jpg	brown
137.6367775000399	1.2619125000201166	ISI	n/a	n/a	n/a	D	DD029.jpg	brown
138.90226920007262	2.7521367999725044	decision_monetary	1.9245222000172362	2	recall_win	D	DD012.jpg	brown
141.65473730000667	3.2606216999702156	ISI	n/a	n/a	n/a	D	DD012.jpg	brown
144.91914840007666	2.7517114999936894	decision_monetary	1.2895178999751806	3	recall_loss	D	DD037.jpg	brown
147.67119270004332	3.2607162999920547	ISI	n/a	n/a	n/a	D	DD037.jpg	brown
150.93570170004386	2.751860999967903	decision_monetary	1.9246382999699563	2	recall_win	S	SD031.jpg	red
153.68790200003423	1.010677000042051	ISI	n/a	n/a	n/a	S	SD031.jpg	red
154.70217409997713	2.751497600111179	decision_monetary	1.3571629000362009	8	predict_loss	S	SD034.jpg	red
157.45400720008183	1.7612106999149546	ISI	n/a	n/a	n/a	S	SD034.jpg	red
159.21885190007742	2.751520299934782	decision_monetary	1.574298799969256	2	recall_win	S	SD006.jpg	black
161.9707140000537	2.2611200999235734	ISI	n/a	n/a	n/a	S	SD006.jpg	black
164.23548070003744	2.751136100036092	decision_monetary	2.5068341000005603	8	predict_loss	S	SD013.jpg	blue
166.98695649998263	3.0115181000437587	ISI	n/a	n/a	n/a	S	SD013.jpg	blue
170.00233080005273	2.751645699958317	decision_monetary	1.057109999936074	2	recall_win	S	SD027.jpg	green
172.75431760004722	2.010906899929978	ISI	n/a	n/a	n/a	S	SD027.jpg	green
174.76910370006226	2.7521750999148935	decision_monetary	2.257163899950683	2	recall_win	D	DD013.jpg	brown
177.52161450008862	2.5101299999514595	ISI	n/a	n/a	n/a	D	DD013.jpg	brown
180.03543560008984	2.750713299959898	decision_monetary	1.0236391999060288	8	predict_loss	D	DD035.jpg	brown
182.78651230002288	1.0120110999559984	ISI	n/a	n/a	n/a	D	DD035.jpg	brown
183.8022551999893	2.75089550006669	decision_monetary	0.9581178000662476	2	recall_win	D	DD023.jpg	blue
186.5534944999963	1.761596400057897	ISI	n/a	n/a	n/a	D	DD023.jpg	blue
188.31881620001514	2.75157439999748	decision_monetary	0.8234543000580743	7	predict_neutral	D	DD030.jpg	brown
191.0707366000861	1.2609764999942854	ISI	n/a	n/a	n/a	D	DD030.jpg	brown
192.33544830000028	2.750660500023514	decision_monetary	1.057818999979645	2	recall_win	D	DD003.jpg	green
195.08666290005203	1.2617644999409094	ISI	n/a	n/a	n/a	D	DD003.jpg	green
196.35213930008467	2.750643399893306	decision_monetary	1.3241084999172017	8	predict_loss	D	DD034.jpg	purple
199.10312169999816	4.01200119999703	ISI	n/a	n/a	n/a	D	DD034.jpg	purple
203.11897950002458	2.762653199955821	decision_monetary_MISSED	missed	missed	missed	D	DD040.jpg	black
205.88191560003906	6.266531400033273	ISI	n/a	n/a	n/a	D	DD040.jpg	black
212.15221480000764	2.752043000073172	decision_monetary	2.739803700009361	3	recall_loss	D	DD041.jpg	brown
214.90454520005733	4.76040989998728	ISI	n/a	n/a	n/a	D	DD041.jpg	brown
219.66880970005877	2.7502684999490157	decision_monetary	1.7063690000213683	3	recall_loss	D	DD025.jpg	brown
222.4194236000767	1.0121991999913007	ISI	n/a	n/a	n/a	D	DD025.jpg	brown
223.4353381000692	2.7514628999633715	decision_monetary	1.707885899930261	8	predict_loss	S	SD037.jpg	red
226.18715530005284	6.5111815999262035	ISI	n/a	n/a	n/a	S	SD037.jpg	red
232.7020672999788	2.750324000022374	decision_monetary	0.7744952000211924	2	recall_win	S	SD025.jpg	green
235.45278900000267	5.012045299983583	ISI	n/a	n/a	n/a	S	SD025.jpg	green
240.46880180004518	2.7503308999584988	decision_monetary	1.3561826000222936	9	predict_win	D	DD004.jpg	blue
243.21947170002386	3.012071100063622	ISI	n/a	n/a	n/a	D	DD004.jpg	blue
246.23529770004097	2.7514764999505132	decision_monetary	1.6735874000005424	3	recall_loss	S	SD010.jpg	yellow
248.98712489998434	4.010998000041582	ISI	n/a	n/a	n/a	S	SD010.jpg	yellow
253.00212820002344	2.751097699976526	decision_monetary	1.5230431000236422	3	recall_loss	S	SD005.jpg	black
255.75357840000652	3.261309100082144	ISI	n/a	n/a	n/a	S	SD005.jpg	black
259.018711599987	2.750768500030972	decision_monetary	1.5576596000464633	8	predict_loss	S	SD008.jpg	blue
261.76982809999026	1.0117108999984339	ISI	n/a	n/a	n/a	S	SD008.jpg	blue
262.7853387000505	2.7506595000158995	decision_monetary	1.9079127999721095	3	recall_loss	S	SD040.jpg	brown
265.5363714999985	6.261727500008419	ISI	n/a	n/a	n/a	S	SD040.jpg	brown
271.8019603000721	2.752128299907781	decision_monetary	1.2574049999238923	9	predict_win	D	DD011.jpg	brown
274.5544476000359	2.010254199965857	ISI	n/a	n/a	n/a	D	DD011.jpg	brown
276.56858560000546	2.7507095000473782	decision_monetary	1.3744408000493422	2	recall_win	D	DD026.jpg	white
279.31965960003436	1.0117998999776319	ISI	n/a	n/a	n/a	D	DD026.jpg	white
280.3353535999777	2.7518537000287324	decision_monetary	1.3066523000597954	2	recall_win	D	DD042.jpg	brown
283.087560200016	5.760523800039664	ISI	n/a	n/a	n/a	D	DD042.jpg	brown
288.852191700018	2.7515501000452787	decision_monetary	1.2408636000473052	8	predict_loss	D	DD018.jpg	brown
291.604095500079	1.7605208999011666	ISI	n/a	n/a	n/a	D	DD018.jpg	brown
293.3685607999796	2.7627291000681	decision_monetary_MISSED	missed	missed	missed	D	DD016.jpg	brown
296.13158649997786	3.0164403000380844	ISI	n/a	n/a	n/a	D	DD016.jpg	brown
299.1519334000768	2.751257799915038	decision_monetary	1.62386059993878	8	predict_loss	S	SD011.jpg	blue
301.9035554000875	6.511032299953513	ISI	n/a	n/a	n/a	S	SD011.jpg	blue
308.4185041000601	2.7513224999420345	decision_monetary	1.424385100021027	3	recall_loss	D	DD014.jpg	green
311.17019319999963	1.2610968999797478	ISI	n/a	n/a	n/a	D	DD014.jpg	green
312.43520389997866	2.7504213000647724	decision_monetary	1.707947500050068	8	predict_loss	D	DD015.jpg	blue
315.18600079999305	1.7619738000212237	ISI	n/a	n/a	n/a	D	DD015.jpg	blue
316.9521291999845	2.751359000103548	decision_monetary	1.590937800006941	2	recall_win	D	DD022.jpg	blue
319.7038922000211	1.5107822000281885	ISI	n/a	n/a	n/a	D	DD022.jpg	blue
321.2187339999946	2.7520348000107333	decision_monetary	1.7396783999865875	2	recall_win	D	DD027.jpg	blue
323.9711520000128	2.010115999961272	ISI	n/a	n/a	n/a	D	DD027.jpg	blue
325.98550240008626	2.7509508999064565	decision_monetary	0.9574581999331713	9	predict_win	D	DD007.jpg	blue
328.73683459998574	1.7609333000145853	ISI	n/a	n/a	n/a	D	DD007.jpg	blue
330.50233540008776	2.7522098999470472	decision_monetary	1.6901192999212071	8	predict_loss	S	SD004.jpg	white
333.25490659999195	2.0095522000920027	ISI	n/a	n/a	n/a	S	SD004.jpg	white
335.26838260004297	2.75036069995258	decision_monetary	1.806575799942948	2	recall_win	S	SD009.jpg	blue
338.0191076999763	3.7622063000453636	ISI	n/a	n/a	n/a	S	SD009.jpg	blue
341.7852967000799	2.7513293999945745	decision_monetary	1.1737005999311805	3	recall_loss	S	SD026.jpg	gray
344.5369917000644	1.5108182999538258	ISI	n/a	n/a	n/a	S	SD026.jpg	gray
346.0518129999982	2.7625973999965936	decision_monetary_MISSED	missed	missed	missed	S	SD017.jpg	blue
348.8147093000589	1.0168302999809384	ISI	n/a	n/a	n/a	S	SD017.jpg	blue
349.8356677000411	2.7503697000211105	decision_monetary	2.0719679000321776	2	recall_win	D	DD001.jpg	blue
352.58640490006655	2.011432299972512	ISI	n/a	n/a	n/a	D	DD001.jpg	blue
354.6018168000737	2.7519719999982044	decision_monetary	1.790135599905625	9	predict_win	D	DD033.jpg	red
357.35416180000175	1.2602424999931827	ISI	n/a	n/a	n/a	D	DD033.jpg	red
358.61837600008585	2.751509299967438	decision_monetary	1.140651199966669	8	predict_loss	D	DD036.jpg	brown
361.3703646999784	3.010665800073184	ISI	n/a	n/a	n/a	D	DD036.jpg	brown
364.3850164000178	2.7514987000031397	decision_monetary	0.9408876000670716	3	recall_loss	D	DD031.jpg	pink
367.13689660001546	2.7607808000175282	ISI	n/a	n/a	n/a	D	DD031.jpg	pink
369.9016282000812	2.7503656999906525	decision_monetary	0.9582982999272645	8	predict_loss	D	DD019.jpg	blue
372.6523719000397	2.76202469994314	ISI	n/a	n/a	n/a	D	DD019.jpg	blue
375.41853080003057	2.751796600059606	decision_monetary	0.47375759994611144	2	recall_win	S	SD036.jpg	black
378.17069900000934	1.5103207000065595	ISI	n/a	n/a	n/a	S	SD036.jpg	black
379.6849653000245	2.7513361000455916	decision_monetary	0.9565365000162274	2	recall_win	S	SD018.jpg	green
382.4366741999984	2.7610152000561357	ISI	n/a	n/a	n/a	S	SD018.jpg	green
385.2018011000473	2.7506521999603137	decision_monetary	0.8739183000288904	2	recall_win	S	SD028.jpg	grey
387.95282740006223	1.261470599914901	ISI	n/a	n/a	n/a	S	SD028.jpg	grey
389.21839880000334	2.7521054000826553	decision_monetary	1.4065455000381917	3	recall_loss	D	DD008.jpg	blue
391.9708843000699	1.010113599942997	ISI	n/a	n/a	n/a	D	DD008.jpg	blue
392.98505740007386	2.751160699990578	decision_monetary	0.9069071999983862	2	recall_win	S	SD001.jpg	green
395.736595400027	1.2610172999557108	ISI	n/a	n/a	n/a	S	SD001.jpg	green
397.00171990005765	2.751455800025724	decision_monetary	0.5742596000200137	7	predict_neutral	D	DD039.jpg	white
399.7535494000185	1.2607895999681205	ISI	n/a	n/a	n/a	D	DD039.jpg	white
401.01858730008826	2.7517949999310076	decision_monetary	1.1728544998914003	2	recall_win	S	SD024.jpg	blue
403.7707670000382	3.760110400035046	ISI	n/a	n/a	n/a	S	SD024.jpg	blue
407.53501410002355	2.7626503000501543	decision_monetary_MISSED	missed	missed	missed	S	SD035.jpg	blue
410.29819000000134	2.000999700045213	ISI	0.04983570007607341	3	recall_loss	S	SD035.jpg	blue
412.30336630006786	2.7504553999751806	decision_monetary	2.1545131999300793	2	recall_win	D	DD028.jpg	red
415.05419659998734	3.759988300036639	ISI	n/a	n/a	n/a	D	DD028.jpg	red
418.81840250000823	2.7504983000690117	decision_monetary	0.9576017999788746	8	predict_loss	S	SD014.jpg	black
421.5692870999919	2.5115562999853864	ISI	n/a	n/a	n/a	S	SD014.jpg	black
424.0848645999795	2.750847600051202	decision_monetary	1.289998900028877	9	predict_win	S	SD029.jpg	black
426.83610990003217	3.5113177000312135	ISI	n/a	n/a	n/a	S	SD029.jpg	black
430.35146170004737	2.7520149999763817	decision_monetary	0.3563378000399098	2	recall_win	D	DD002.jpg	brown
433.10385549999774	2.5102928000269458	ISI	n/a	n/a	n/a	D	DD002.jpg	brown
435.6182049000636	2.7515721999807283	decision_monetary	2.7227489999495447	3	recall_loss	D	DD032.jpg	red
438.37009960005525	2.510639699990861	ISI	n/a	n/a	n/a	D	DD032.jpg	red
440.88486380001996	2.7505741000641137	decision_monetary	1.4570713000139222	2	recall_win	S	SD022.jpg	red
443.6358217999805	2.2615221000742167	ISI	n/a	n/a	n/a	S	SD022.jpg	red
445.901451600017	2.750370900030248	decision_monetary	1.024260999984108	9	predict_win	S	SD042.jpg	purple
448.6522022000281	2.762051400030032	ISI	n/a	n/a	n/a	S	SD042.jpg	purple
451.4188294999767	2.75116430001799	decision_monetary	1.4732213000534102	8	predict_loss	D	DD009.jpg	white
454.1703782000113	1.0104887000052258	ISI	n/a	n/a	n/a	D	DD009.jpg	white
455.1850938000716	2.7503069000085816	decision_monetary	1.3223185999086127	2	recall_win	D	DD024.jpg	white
457.9359097999986	1.0113989000674337	ISI	n/a	n/a	n/a	D	DD024.jpg	white
458.95152000000235	2.7625814999919385	decision_monetary_MISSED	missed	missed	missed	S	SD038.jpg	brown
461.71440840000287	2.7510429000249133	ISI	0.10018469998613	3	recall_loss	S	SD038.jpg	brown
