date,time,group,subject,session,build,blocknum,trialnum,blockcode,trialcode,pretrialpause,posttrialpause,trialduration,trialtimeout,response,correct,latency,stimulusnumber1,stimulusitem1,stimulusonset1,stimulusnumber2,stimulusitem2,stimulusonset2,stimulusnumber3,stimulusitem3,stimulusonset3
3/29/24,8:44:42,1,65b50fa832c828a13f2aa884,1,6.6.1,1,1,full,instructions,0,0,0,0,continue,0,26351,1,"In this task, you will be shown a series of faces.   Press the 'f' key if it DOES look like a 9-12 year old, or the 'j' key if it does NOT look like a 9-12 year old.   Press the Continue button to begin.",-24,1,,-24,0,0,0
3/29/24,8:44:42,1,65b50fa832c828a13f2aa884,1,6.6.1,1,2,full,encoding,0,0,0,0,33,0,3905,244,number_67_648f31a8b130645170574d90.jpg,0,1,press 'f' (is a 9-12 year old) or 'j' ( is NOT a 9-12 year old),25,0,0,0
3/29/24,8:44:42,1,65b50fa832c828a13f2aa884,1,6.6.1,1,3,full,encoding,0,0,0,0,36,0,1114,270,number_148_649e6978b13064000d61be65.jpg,0,1,press 'f' (is a 9-12 year old) or 'j' ( is NOT a 9-12 year old),25,0,0,0
3/29/24,8:44:42,1,65b50fa832c828a13f2aa884,1,6.6.1,1,4,full,encoding,0,0,0,0,33,0,1389,149,generated_photos_5e6878626d3b380006ee5087.png.jpg,0,1,press 'f' (is a 9-12 year old) or 'j' ( is NOT a 9-12 year old),25,0,0,0
3/29/24,8:44:42,1,65b50fa832c828a13f2aa884,1,6.6.1,1,5,full,encoding,0,0,0,0,33,0,1613,144,generated_photos_5e6867486d3b380006ea7469.png.jpg,0,1,press 'f' (is a 9-12 year old) or 'j' ( is NOT a 9-12 year old),25,0,0,0
3/29/24,8:44:42,1,65b50fa832c828a13f2aa884,1,6.6.1,1,6,full,encoding,0,0,0,0,36,0,1887,285,number_170_649f0785b13064000d61d938.jpg,0,1,press 'f' (is a 9-12 year old) or 'j' ( is NOT a 9-12 year old),25,0,0,0
3/29/24,8:44:42,1,65b50fa832c828a13f2aa884,1,6.6.1,1,7,full,encoding,0,0,0,0,33,0,971,249,number_96_generated_photos_5e6824606d3b380006db9319_fixed.jpg,0,1,press 'f' (is a 9-12 year old) or 'j' ( is NOT a 9-12 year old),25,0,0,0
3/29/24,8:44:42,1,65b50fa832c828a13f2aa884,1,6.6.1,1,8,full,encoding,0,0,0,0,36,0,1182,320,number_232_generated_photos_5e680be16d3b380006d61a23.jpg,0,1,press 'f' (is a 9-12 year old) or 'j' ( is NOT a 9-12 year old),25,0,0,0
3/29/24,8:44:42,1,65b50fa832c828a13f2aa884,1,6.6.1,1,9,full,encoding,0,0,0,0,36,0,1058,309,number_217_generated_photos_5f8970705bec8300083893e6.jpg,0,1,press 'f' (is a 9-12 year old) or 'j' ( is NOT a 9-12 year old),25,0,0,0
3/29/24,8:44:42,1,65b50fa832c828a13f2aa884,1,6.6.1,1,10,full,encoding,0,0,0,0,33,0,936,47,generated_photos_5e687e796d3b380006efbbdb.png.jpg,0,1,press 'f' (is a 9-12 year old) or 'j' ( is NOT a 9-12 year old),25,0,0,0
3/29/24,8:44:42,1,65b50fa832c828a13f2aa884,1,6.6.1,1,11,full,encoding,0,0,0,0,33,0,648,228,number_43_generated_photos_5e68677a6d3b380006ea7fad.jpg,0,1,press 'f' (is a 9-12 year old) or 'j' ( is NOT a 9-12 year old),25,0,0,0
3/29/24,8:44:42,1,65b50fa832c828a13f2aa884,1,6.6.1,1,12,full,encoding,0,0,0,0,33,0,720,123,generated_photos_5e6830796d3b380006de2a4b.png.jpg,0,1,press 'f' (is a 9-12 year old) or 'j' ( is NOT a 9-12 year old),25,0,0,0
3/29/24,8:44:42,1,65b50fa832c828a13f2aa884,1,6.6.1,1,13,full,encoding,0,0,0,0,33,0,668,67,generated_photos_5e6832ad6d3b380006dea597.png.jpg,0,1,press 'f' (is a 9-12 year old) or 'j' ( is NOT a 9-12 year old),25,0,0,0
3/29/24,8:44:42,1,65b50fa832c828a13f2aa884,1,6.6.1,1,14,full,encoding,0,0,0,0,33,0,788,208,number_18_generated_photos_5f897b015bec8300083c764e.jpg,0,1,press 'f' (is a 9-12 year old) or 'j' ( is NOT a 9-12 year old),25,0,0,0
3/29/24,8:44:42,1,65b50fa832c828a13f2aa884,1,6.6.1,1,15,full,encoding,0,0,0,0,33,0,772,248,number_95_15_B_F_004.jpg,0,1,press 'f' (is a 9-12 year old) or 'j' ( is NOT a 9-12 year old),25,0,0,0
3/29/24,8:44:42,1,65b50fa832c828a13f2aa884,1,6.6.1,1,16,full,encoding,0,0,0,0,33,0,818,234,number_49_generated_photos_5e683d3c6d3b380006e0f421.jpg,0,1,press 'f' (is a 9-12 year old) or 'j' ( is NOT a 9-12 year old),25,0,0,0
3/29/24,8:44:42,1,65b50fa832c828a13f2aa884,1,6.6.1,1,17,full,encoding,0,0,0,0,33,0,701,273,number_154_649eaf9eb13064000961f3c6.jpg,0,1,press 'f' (is a 9-12 year old) or 'j' ( is NOT a 9-12 year old),25,0,0,0
3/29/24,8:44:42,1,65b50fa832c828a13f2aa884,1,6.6.1,1,18,full,encoding,0,0,0,0,36,0,1875,24,generated_photos_5e682d726d3b380006dd8067.png.jpg,0,1,press 'f' (is a 9-12 year old) or 'j' ( is NOT a 9-12 year old),25,0,0,0
3/29/24,8:44:42,1,65b50fa832c828a13f2aa884,1,6.6.1,1,19,full,encoding,0,0,0,0,33,0,625,198,number_2_generated_photos_5f182a0c1f67b0000684ebfe.jpg,0,1,press 'f' (is a 9-12 year old) or 'j' ( is NOT a 9-12 year old),25,0,0,0
3/29/24,8:44:42,1,65b50fa832c828a13f2aa884,1,6.6.1,1,20,full,encoding,0,0,0,0,33,0,600,38,generated_photos_5e685d056d3b380006e821ed.png.jpg,0,1,press 'f' (is a 9-12 year old) or 'j' ( is NOT a 9-12 year old),25,0,0,0
3/29/24,8:44:42,1,65b50fa832c828a13f2aa884,1,6.6.1,1,21,full,encoding,0,0,0,0,33,0,805,192,generated_photos_5f1833951f67b0000687ab7c.png.jpg,0,1,press 'f' (is a 9-12 year old) or 'j' ( is NOT a 9-12 year old),25,0,0,0
3/29/24,8:44:42,1,65b50fa832c828a13f2aa884,1,6.6.1,1,22,full,encoding,0,0,0,0,33,0,715,2,15_W_M_008.jpg,0,1,press 'f' (is a 9-12 year old) or 'j' ( is NOT a 9-12 year old),25,0,0,0
3/29/24,8:44:42,1,65b50fa832c828a13f2aa884,1,6.6.1,1,23,full,encoding,0,0,0,0,33,0,1041,128,generated_photos_5e6849796d3b380006e3b943.png.jpg,0,1,press 'f' (is a 9-12 year old) or 'j' ( is NOT a 9-12 year old),25,0,0,0
3/29/24,8:44:42,1,65b50fa832c828a13f2aa884,1,6.6.1,1,24,full,encoding,0,0,0,0,33,0,706,29,generated_photos_5e683ef66d3b380006e156bb.png.jpg,0,1,press 'f' (is a 9-12 year old) or 'j' ( is NOT a 9-12 year old),25,0,0,0
3/29/24,8:44:42,1,65b50fa832c828a13f2aa884,1,6.6.1,1,25,full,encoding,0,0,0,0,33,0,1109,263,number_131_generated_photos_5e687c1a6d3b380006ef2e33.jpg,0,1,press 'f' (is a 9-12 year old) or 'j' ( is NOT a 9-12 year old),25,0,0,0
3/29/24,8:44:42,1,65b50fa832c828a13f2aa884,1,6.6.1,1,26,full,encoding,0,0,0,0,33,0,668,132,generated_photos_5e6856006d3b380006e68ced.png.jpg,0,1,press 'f' (is a 9-12 year old) or 'j' ( is NOT a 9-12 year old),25,0,0,0
3/29/24,8:44:42,1,65b50fa832c828a13f2aa884,1,6.6.1,1,27,full,encoding,0,0,0,0,33,0,604,229,number_44_generated_photos_5e6821c56d3b380006db014f.jpg,0,1,press 'f' (is a 9-12 year old) or 'j' ( is NOT a 9-12 year old),25,0,0,0
3/29/24,8:44:42,1,65b50fa832c828a13f2aa884,1,6.6.1,1,28,full,encoding,0,0,0,0,33,0,679,337,number_268_generated_photos_5e6809926d3b380006d59233.jpg,0,1,press 'f' (is a 9-12 year old) or 'j' ( is NOT a 9-12 year old),25,0,0,0
3/29/24,8:44:42,1,65b50fa832c828a13f2aa884,1,6.6.1,1,29,full,encoding,0,0,0,0,33,0,814,84,generated_photos_5e6883e26d3b380006f0f72b.png.jpg,0,1,press 'f' (is a 9-12 year old) or 'j' ( is NOT a 9-12 year old),25,0,0,0
3/29/24,8:44:42,1,65b50fa832c828a13f2aa884,1,6.6.1,1,30,full,encoding,0,0,0,0,33,0,1293,75,generated_photos_5e6864f36d3b380006e9e94f.png.jpg,0,1,press 'f' (is a 9-12 year old) or 'j' ( is NOT a 9-12 year old),25,0,0,0
3/29/24,8:44:42,1,65b50fa832c828a13f2aa884,1,6.6.1,1,31,full,encoding,0,0,0,0,33,0,655,39,generated_photos_5e686ba36d3b380006eb71ff.png.jpg,1,1,press 'f' (is a 9-12 year old) or 'j' ( is NOT a 9-12 year old),27,0,0,0
3/29/24,8:44:42,1,65b50fa832c828a13f2aa884,1,6.6.1,1,32,full,encoding,0,0,0,0,36,0,1071,301,number_195_generated_photos_5f897dd45bec8300083d7c4a_fixed.jpg,0,1,press 'f' (is a 9-12 year old) or 'j' ( is NOT a 9-12 year old),25,0,0,0
3/29/24,8:44:42,1,65b50fa832c828a13f2aa884,1,6.6.1,1,33,full,encoding,0,0,0,0,36,0,940,286,number_172_649f12b9b130640009620590.jpg,0,1,press 'f' (is a 9-12 year old) or 'j' ( is NOT a 9-12 year old),25,0,0,0
3/29/24,8:44:42,1,65b50fa832c828a13f2aa884,1,6.6.1,1,34,full,encoding,0,0,0,0,36,0,844,306,number_201_generated_photos_5f1811ff1f67b000067d69bf.jpg_fixed.jpg,0,1,press 'f' (is a 9-12 year old) or 'j' ( is NOT a 9-12 year old),25,0,0,0
3/29/24,8:44:42,1,65b50fa832c828a13f2aa884,1,6.6.1,1,35,full,encoding,0,0,0,0,33,0,661,91,generated_photos_5e68144e6d3b380006d80bc3.png.jpg,0,1,press 'f' (is a 9-12 year old) or 'j' ( is NOT a 9-12 year old),25,0,0,0
3/29/24,8:44:42,1,65b50fa832c828a13f2aa884,1,6.6.1,1,36,full,encoding,0,0,0,0,33,0,1365,152,generated_photos_5e6883586d3b380006f0d83d.png.jpg,0,1,press 'f' (is a 9-12 year old) or 'j' ( is NOT a 9-12 year old),25,0,0,0
3/29/24,8:44:42,1,65b50fa832c828a13f2aa884,1,6.6.1,1,37,full,encoding,0,0,0,0,36,0,2664,119,generated_photos_5e6824996d3b380006db9f27.png.jpg,0,1,press 'f' (is a 9-12 year old) or 'j' ( is NOT a 9-12 year old),25,0,0,0
3/29/24,8:44:42,1,65b50fa832c828a13f2aa884,1,6.6.1,1,38,full,encoding,0,0,0,0,33,0,629,204,number_11_generated_photos_5f8970e05bec83000838bd80.jpg,0,1,press 'f' (is a 9-12 year old) or 'j' ( is NOT a 9-12 year old),25,0,0,0
3/29/24,8:44:42,1,65b50fa832c828a13f2aa884,1,6.6.1,1,39,full,encoding,0,0,0,0,33,0,1898,338,number_273_generated_photos_5e6876026d3b380006edc61f.jpg,0,1,press 'f' (is a 9-12 year old) or 'j' ( is NOT a 9-12 year old),25,0,0,0
3/29/24,8:44:42,1,65b50fa832c828a13f2aa884,1,6.6.1,1,40,full,encoding,0,0,0,0,33,0,992,143,generated_photos_5e6866026d3b380006ea27dd.png.jpg,0,1,press 'f' (is a 9-12 year old) or 'j' ( is NOT a 9-12 year old),25,0,0,0
3/29/24,8:44:42,1,65b50fa832c828a13f2aa884,1,6.6.1,1,41,full,encoding,0,0,0,0,33,0,1869,20,generated_photos_5e682c4d6d3b380006dd4223.png.jpg,0,1,press 'f' (is a 9-12 year old) or 'j' ( is NOT a 9-12 year old),25,0,0,0
3/29/24,8:44:42,1,65b50fa832c828a13f2aa884,1,6.6.1,1,42,full,encoding,0,0,0,0,36,0,855,293,number_180_64a59961b130640007621cba.jpg,0,1,press 'f' (is a 9-12 year old) or 'j' ( is NOT a 9-12 year old),25,0,0,0
3/29/24,8:44:42,1,65b50fa832c828a13f2aa884,1,6.6.1,1,43,full,encoding,0,0,0,0,33,0,800,222,number_37_generated_photos_5f182eb21f67b00006864a45.jpg,0,1,press 'f' (is a 9-12 year old) or 'j' ( is NOT a 9-12 year old),25,0,0,0
3/29/24,8:44:42,1,65b50fa832c828a13f2aa884,1,6.6.1,1,44,full,encoding,0,0,0,0,33,0,1486,193,generated_photos_5f8971195bec83000838d307.png.jpg,0,1,press 'f' (is a 9-12 year old) or 'j' ( is NOT a 9-12 year old),25,0,0,0
3/29/24,8:44:42,1,65b50fa832c828a13f2aa884,1,6.6.1,1,45,full,encoding,0,0,0,0,33,0,569,36,generated_photos_5e685c2d6d3b380006e7f0a5.png.jpg,0,1,press 'f' (is a 9-12 year old) or 'j' ( is NOT a 9-12 year old),25,0,0,0
3/29/24,8:44:42,1,65b50fa832c828a13f2aa884,1,6.6.1,1,46,full,encoding,0,0,0,0,36,0,1822,106,generated_photos_5e68685e6d3b380006eab441.png.jpg,0,1,press 'f' (is a 9-12 year old) or 'j' ( is NOT a 9-12 year old),25,0,0,0
3/29/24,8:44:42,1,65b50fa832c828a13f2aa884,1,6.6.1,1,47,full,encoding,0,0,0,0,33,0,669,125,generated_photos_5e6832796d3b380006de9a61.png.jpg,0,1,press 'f' (is a 9-12 year old) or 'j' ( is NOT a 9-12 year old),25,0,0,0
3/29/24,8:44:42,1,65b50fa832c828a13f2aa884,1,6.6.1,1,48,full,encoding,0,0,0,0,33,0,662,213,number_24_generated_photos_5e6881196d3b380006f05583.jpg,0,1,press 'f' (is a 9-12 year old) or 'j' ( is NOT a 9-12 year old),25,0,0,0
3/29/24,8:44:42,1,65b50fa832c828a13f2aa884,1,6.6.1,1,49,full,encoding,0,0,0,0,36,0,816,330,number_253_generated_photos_5e68581c6d3b380006e7080b_fixed.jpg,0,1,press 'f' (is a 9-12 year old) or 'j' ( is NOT a 9-12 year old),25,0,0,0
3/29/24,8:44:42,1,65b50fa832c828a13f2aa884,1,6.6.1,1,50,full,encoding,0,0,0,0,36,0,1748,207,number_17_generated_photos_5f8983d15bec8300083f9c2e.jpg,0,1,press 'f' (is a 9-12 year old) or 'j' ( is NOT a 9-12 year old),25,0,0,0
3/29/24,8:44:42,1,65b50fa832c828a13f2aa884,1,6.6.1,1,51,full,encoding,0,0,0,0,33,0,543,235,number_51_generated_photos_5e6842a56d3b380006e22d07.jpg,0,1,press 'f' (is a 9-12 year old) or 'j' ( is NOT a 9-12 year old),25,0,0,0
3/29/24,8:44:42,1,65b50fa832c828a13f2aa884,1,6.6.1,1,52,full,encoding,0,0,0,0,33,0,663,133,generated_photos_5e6856466d3b380006e69d3f.png.jpg,1,1,press 'f' (is a 9-12 year old) or 'j' ( is NOT a 9-12 year old),26,0,0,0
3/29/24,8:44:42,1,65b50fa832c828a13f2aa884,1,6.6.1,1,53,full,encoding,0,0,0,0,33,0,1685,224,number_39_generated_photos_5e687bf36d3b380006ef24b9.jpg,0,1,press 'f' (is a 9-12 year old) or 'j' ( is NOT a 9-12 year old),25,0,0,0
3/29/24,8:44:42,1,65b50fa832c828a13f2aa884,1,6.6.1,1,54,full,encoding,0,0,0,0,36,0,1505,318,number_230_generated_photos_5e6805336d3b380006d497cf_fixed.jpg,0,1,press 'f' (is a 9-12 year old) or 'j' ( is NOT a 9-12 year old),25,0,0,0
3/29/24,8:44:42,1,65b50fa832c828a13f2aa884,1,6.6.1,1,55,full,encoding,0,0,0,0,33,0,515,5,generated_photos_5e680bad6d3b380006d60e37.png.jpg,0,1,press 'f' (is a 9-12 year old) or 'j' ( is NOT a 9-12 year old),25,0,0,0
3/29/24,8:44:42,1,65b50fa832c828a13f2aa884,1,6.6.1,1,56,full,encoding,0,0,0,0,33,0,612,110,generated_photos_5e68889c6d3b380006f20beb.png.jpg,0,1,press 'f' (is a 9-12 year old) or 'j' ( is NOT a 9-12 year old),25,0,0,0
3/29/24,8:44:42,1,65b50fa832c828a13f2aa884,1,6.6.1,1,57,full,encoding,0,0,0,0,33,0,1005,6,generated_photos_5e680bd96d3b380006d61843.png.jpg,0,1,press 'f' (is a 9-12 year old) or 'j' ( is NOT a 9-12 year old),25,0,0,0
3/29/24,8:44:42,1,65b50fa832c828a13f2aa884,1,6.6.1,1,58,full,encoding,0,0,0,0,33,0,780,9,generated_photos_5e680d6a6d3b380006d6749d.png.jpg,0,1,press 'f' (is a 9-12 year old) or 'j' ( is NOT a 9-12 year old),25,0,0,0
3/29/24,8:44:42,1,65b50fa832c828a13f2aa884,1,6.6.1,1,59,full,encoding,0,0,0,0,33,0,735,261,number_125_generated_photos_5e6883f06d3b380006f0fa67.jpg_fixed.jpg,0,1,press 'f' (is a 9-12 year old) or 'j' ( is NOT a 9-12 year old),25,0,0,0
3/29/24,8:44:42,1,65b50fa832c828a13f2aa884,1,6.6.1,1,60,full,encoding,0,0,0,0,33,0,1251,59,generated_photos_5e6814a06d3b380006d81edb.png.jpg,0,1,press 'f' (is a 9-12 year old) or 'j' ( is NOT a 9-12 year old),25,0,0,0
3/29/24,8:44:42,1,65b50fa832c828a13f2aa884,1,6.6.1,1,61,full,encoding,0,0,0,0,33,0,917,40,generated_photos_5e686bd56d3b380006eb7d4f.png.jpg,0,1,press 'f' (is a 9-12 year old) or 'j' ( is NOT a 9-12 year old),25,0,0,0
3/29/24,8:44:42,1,65b50fa832c828a13f2aa884,1,6.6.1,1,62,full,encoding,0,0,0,0,36,0,2680,113,generated_photos_5e6802786d3b380006d3f945.png.jpg,0,1,press 'f' (is a 9-12 year old) or 'j' ( is NOT a 9-12 year old),25,0,0,0
3/29/24,8:44:42,1,65b50fa832c828a13f2aa884,1,6.6.1,1,63,full,encoding,0,0,0,0,33,0,794,135,generated_photos_5e6856636d3b380006e6a3f9.png.jpg,0,1,press 'f' (is a 9-12 year old) or 'j' ( is NOT a 9-12 year old),25,0,0,0
3/29/24,8:44:42,1,65b50fa832c828a13f2aa884,1,6.6.1,1,64,full,encoding,0,0,0,0,33,0,700,58,generated_photos_5e6812f36d3b380006d7bbcb.png.jpg,0,1,press 'f' (is a 9-12 year old) or 'j' ( is NOT a 9-12 year old),25,0,0,0
3/29/24,8:44:42,1,65b50fa832c828a13f2aa884,1,6.6.1,1,65,full,encoding,0,0,0,0,36,0,617,116,generated_photos_5e6818536d3b380006d8fa99.png.jpg,0,1,press 'f' (is a 9-12 year old) or 'j' ( is NOT a 9-12 year old),25,0,0,0
3/29/24,8:44:42,1,65b50fa832c828a13f2aa884,1,6.6.1,1,66,full,encoding,0,0,0,0,33,0,617,201,number_6_generated_photos_5e686ef66d3b380006ec3235.jpg,0,1,press 'f' (is a 9-12 year old) or 'j' ( is NOT a 9-12 year old),25,0,0,0
3/29/24,8:44:42,1,65b50fa832c828a13f2aa884,1,6.6.1,1,67,full,encoding,0,0,0,0,36,0,1618,175,generated_photos_5f897c615bec8300083cfa15.png.jpg,2,1,press 'f' (is a 9-12 year old) or 'j' ( is NOT a 9-12 year old),25,0,0,0
3/29/24,8:44:42,1,65b50fa832c828a13f2aa884,1,6.6.1,1,68,full,encoding,0,0,0,0,36,0,763,268,number_145_generated_photos_5f181b181f67b000068064c6.jpg,0,1,press 'f' (is a 9-12 year old) or 'j' ( is NOT a 9-12 year old),25,0,0,0
3/29/24,8:44:42,1,65b50fa832c828a13f2aa884,1,6.6.1,1,69,full,encoding,0,0,0,0,33,0,1027,137,generated_photos_5e6858776d3b380006e71c8b.png.jpg,0,1,press 'f' (is a 9-12 year old) or 'j' ( is NOT a 9-12 year old),25,0,0,0
3/29/24,8:44:42,1,65b50fa832c828a13f2aa884,1,6.6.1,1,70,full,encoding,0,0,0,0,33,0,646,16,generated_photos_5e681dd96d3b380006da2779.png.jpg,0,1,press 'f' (is a 9-12 year old) or 'j' ( is NOT a 9-12 year old),25,0,0,0
3/29/24,8:44:42,1,65b50fa832c828a13f2aa884,1,6.6.1,1,71,full,encoding,0,0,0,0,33,0,916,219,number_33_generated_photos_5e682ad86d3b380006dcf5d3.jpg,0,1,press 'f' (is a 9-12 year old) or 'j' ( is NOT a 9-12 year old),25,0,0,0
3/29/24,8:44:42,1,65b50fa832c828a13f2aa884,1,6.6.1,1,72,full,encoding,0,0,0,0,36,0,1515,187,generated_photos_5f18258e1f67b00006839049.png.jpg,0,1,press 'f' (is a 9-12 year old) or 'j' ( is NOT a 9-12 year old),25,0,0,0
3/29/24,8:44:42,1,65b50fa832c828a13f2aa884,1,6.6.1,1,73,full,encoding,0,0,0,0,33,0,652,99,generated_photos_5e68534d6d3b380006e5efe1.png.jpg,0,1,press 'f' (is a 9-12 year old) or 'j' ( is NOT a 9-12 year old),25,0,0,0
3/29/24,8:44:42,1,65b50fa832c828a13f2aa884,1,6.6.1,1,74,full,encoding,0,0,0,0,36,0,1091,179,generated_photos_5f1818e21f67b000067fb5db.png.jpg,0,1,press 'f' (is a 9-12 year old) or 'j' ( is NOT a 9-12 year old),25,0,0,0
3/29/24,8:44:42,1,65b50fa832c828a13f2aa884,1,6.6.1,1,75,full,encoding,0,0,0,0,36,0,753,326,number_246_generated_photos_5e6847d46d3b380006e357af_2_2222.jpg,0,1,press 'f' (is a 9-12 year old) or 'j' ( is NOT a 9-12 year old),25,0,0,0
3/29/24,8:44:42,1,65b50fa832c828a13f2aa884,1,6.6.1,1,76,full,encoding,0,0,0,0,36,0,663,332,number_258_generated_photos_5e6879e16d3b380006eea955.jpg,0,1,press 'f' (is a 9-12 year old) or 'j' ( is NOT a 9-12 year old),25,0,0,0
3/29/24,8:44:42,1,65b50fa832c828a13f2aa884,1,6.6.1,1,77,full,encoding,0,0,0,0,36,0,937,185,generated_photos_5f8981ea5bec8300083ee582.png.jpg,0,1,press 'f' (is a 9-12 year old) or 'j' ( is NOT a 9-12 year old),25,0,0,0
3/29/24,8:44:42,1,65b50fa832c828a13f2aa884,1,6.6.1,1,78,full,encoding,0,0,0,0,33,0,952,140,generated_photos_5e6861156d3b380006e90ddd.png.jpg,0,1,press 'f' (is a 9-12 year old) or 'j' ( is NOT a 9-12 year old),25,0,0,0
3/29/24,8:44:42,1,65b50fa832c828a13f2aa884,1,6.6.1,1,79,full,encoding,0,0,0,0,36,0,632,302,number_196_generated_photos_5f1836711f67b00006887c7a.jpg_fixed.jpg,0,1,press 'f' (is a 9-12 year old) or 'j' ( is NOT a 9-12 year old),25,0,0,0
3/29/24,8:44:42,1,65b50fa832c828a13f2aa884,1,6.6.1,1,80,full,encoding,0,0,0,0,36,0,858,3,17_W_M_023.jpg,0,1,press 'f' (is a 9-12 year old) or 'j' ( is NOT a 9-12 year old),25,0,0,0
3/29/24,8:44:42,1,65b50fa832c828a13f2aa884,1,6.6.1,1,81,full,encoding,0,0,0,0,36,0,1033,82,generated_photos_5e6875dc6d3b380006edbd99.png.jpg,0,1,press 'f' (is a 9-12 year old) or 'j' ( is NOT a 9-12 year old),25,0,0,0
3/29/24,8:44:42,1,65b50fa832c828a13f2aa884,1,6.6.1,1,82,full,encoding,0,0,0,0,36,0,1422,76,generated_photos_5e6864f96d3b380006e9ea8f.png.jpg,0,1,press 'f' (is a 9-12 year old) or 'j' ( is NOT a 9-12 year old),25,0,0,0
3/29/24,8:44:42,1,65b50fa832c828a13f2aa884,1,6.6.1,1,83,full,encoding,0,0,0,0,33,0,693,118,generated_photos_5e6824906d3b380006db9d3b.png.jpg,0,1,press 'f' (is a 9-12 year old) or 'j' ( is NOT a 9-12 year old),25,0,0,0
3/29/24,8:44:42,1,65b50fa832c828a13f2aa884,1,6.6.1,1,84,full,encoding,0,0,0,0,36,0,947,98,generated_photos_5e68518f6d3b380006e58c0b.png.jpg,0,1,press 'f' (is a 9-12 year old) or 'j' ( is NOT a 9-12 year old),25,0,0,0
3/29/24,8:44:42,1,65b50fa832c828a13f2aa884,1,6.6.1,1,85,full,encoding,0,0,0,0,33,0,651,339,number_274_generated_photos_5e683aca6d3b380006e068491.jpg,0,1,press 'f' (is a 9-12 year old) or 'j' ( is NOT a 9-12 year old),25,0,0,0
3/29/24,8:44:42,1,65b50fa832c828a13f2aa884,1,6.6.1,1,86,full,encoding,0,0,0,0,36,0,709,180,generated_photos_5f1823d71f67b00006830ae1.png.jpg,0,1,press 'f' (is a 9-12 year old) or 'j' ( is NOT a 9-12 year old),25,0,0,0
3/29/24,8:44:42,1,65b50fa832c828a13f2aa884,1,6.6.1,1,87,full,encoding,0,0,0,0,33,0,634,93,generated_photos_5e68248a6d3b380006db9be3.png.jpg,0,1,press 'f' (is a 9-12 year old) or 'j' ( is NOT a 9-12 year old),25,0,0,0
3/29/24,8:44:42,1,65b50fa832c828a13f2aa884,1,6.6.1,1,88,full,encoding,0,0,0,0,36,0,1159,86,generated_photos_5e6886ab6d3b380006f19a21.png.jpg,0,1,press 'f' (is a 9-12 year old) or 'j' ( is NOT a 9-12 year old),25,0,0,0
3/29/24,8:44:42,1,65b50fa832c828a13f2aa884,1,6.6.1,1,89,full,encoding,0,0,0,0,33,0,854,259,number_117_generated_photos_5e685f536d3b380006e8a885.jpg,0,1,press 'f' (is a 9-12 year old) or 'j' ( is NOT a 9-12 year old),25,0,0,0
3/29/24,8:44:42,1,65b50fa832c828a13f2aa884,1,6.6.1,1,90,full,encoding,0,0,0,0,33,0,522,147,generated_photos_5e6876326d3b380006edd0a7.png.jpg,0,1,press 'f' (is a 9-12 year old) or 'j' ( is NOT a 9-12 year old),25,0,0,0
3/29/24,8:44:42,1,65b50fa832c828a13f2aa884,1,6.6.1,1,91,full,encoding,0,0,0,0,33,0,492,155,generated_photos_5f181a6f1f67b000068032ce.png.jpg,0,1,press 'f' (is a 9-12 year old) or 'j' ( is NOT a 9-12 year old),25,0,0,0
3/29/24,8:44:42,1,65b50fa832c828a13f2aa884,1,6.6.1,1,92,full,encoding,0,0,0,0,33,0,538,121,generated_photos_5e6827556d3b380006dc35b5.png.jpg,0,1,press 'f' (is a 9-12 year old) or 'j' ( is NOT a 9-12 year old),25,0,0,0
3/29/24,8:44:42,1,65b50fa832c828a13f2aa884,1,6.6.1,1,93,full,encoding,0,0,0,0,33,0,988,61,generated_photos_5e6815f56d3b380006d86e17.png.jpg,0,1,press 'f' (is a 9-12 year old) or 'j' ( is NOT a 9-12 year old),25,0,0,0
3/29/24,8:44:42,1,65b50fa832c828a13f2aa884,1,6.6.1,1,94,full,encoding,0,0,0,0,36,0,993,168,generated_photos_5f896d025bec830008374ab2.png.jpg,0,1,press 'f' (is a 9-12 year old) or 'j' ( is NOT a 9-12 year old),25,0,0,0
3/29/24,8:44:42,1,65b50fa832c828a13f2aa884,1,6.6.1,1,95,full,encoding,0,0,0,0,33,0,1030,18,generated_photos_5e682a136d3b380006dcd199.png.jpg,0,1,press 'f' (is a 9-12 year old) or 'j' ( is NOT a 9-12 year old),27,0,0,0
3/29/24,8:44:42,1,65b50fa832c828a13f2aa884,1,6.6.1,1,96,full,encoding,0,0,0,0,33,0,636,237,number_53_648f0fd6b1306400095fea5e.jpg,0,1,press 'f' (is a 9-12 year old) or 'j' ( is NOT a 9-12 year old),25,0,0,0
3/29/24,8:44:42,1,65b50fa832c828a13f2aa884,1,6.6.1,1,97,full,encoding,0,0,0,0,33,0,737,1,14_W_M_027.jpg,0,1,press 'f' (is a 9-12 year old) or 'j' ( is NOT a 9-12 year old),25,0,0,0
3/29/24,8:44:42,1,65b50fa832c828a13f2aa884,1,6.6.1,1,98,full,encoding,0,0,0,0,36,0,864,323,number_238_generated_photos_5e6807736d3b380006d515eb.jpg,0,1,press 'f' (is a 9-12 year old) or 'j' ( is NOT a 9-12 year old),25,0,0,0
3/29/24,8:44:42,1,65b50fa832c828a13f2aa884,1,6.6.1,1,99,full,encoding,0,0,0,0,36,0,1907,21,generated_photos_5e682c6d6d3b380006dd48bb.png.jpg,0,1,press 'f' (is a 9-12 year old) or 'j' ( is NOT a 9-12 year old),25,0,0,0
3/29/24,8:44:42,1,65b50fa832c828a13f2aa884,1,6.6.1,1,100,full,encoding,0,0,0,0,33,0,618,13,generated_photos_5e681b016d3b380006d98d3b.png.jpg,0,1,press 'f' (is a 9-12 year old) or 'j' ( is NOT a 9-12 year old),25,0,0,0
3/29/24,8:44:42,1,65b50fa832c828a13f2aa884,1,6.6.1,1,101,full,encoding,0,0,0,0,33,0,780,146,generated_photos_5e6876306d3b380006edd057.png.jpg,0,1,press 'f' (is a 9-12 year old) or 'j' ( is NOT a 9-12 year old),25,0,0,0
3/29/24,8:44:42,1,65b50fa832c828a13f2aa884,1,6.6.1,1,102,full,encoding,0,0,0,0,36,0,796,122,generated_photos_5e6828386d3b380006dc6787.png.jpg,0,1,press 'f' (is a 9-12 year old) or 'j' ( is NOT a 9-12 year old),25,0,0,0
3/29/24,8:44:42,1,65b50fa832c828a13f2aa884,1,6.6.1,1,103,full,encoding,0,0,0,0,33,0,1231,271,number_150_generated_photos_5e682e536d3b380006ddb179.jpg,0,1,press 'f' (is a 9-12 year old) or 'j' ( is NOT a 9-12 year old),25,0,0,0
3/29/24,8:44:42,1,65b50fa832c828a13f2aa884,1,6.6.1,1,104,full,encoding,0,0,0,0,33,0,705,145,generated_photos_5e6871486d3b380006ecb73d.png.jpg,0,1,press 'f' (is a 9-12 year old) or 'j' ( is NOT a 9-12 year old),25,0,0,0
3/29/24,8:44:42,1,65b50fa832c828a13f2aa884,1,6.6.1,1,105,full,encoding,0,0,0,0,33,0,581,102,generated_photos_5e68581f6d3b380006e708a5.png.jpg,0,1,press 'f' (is a 9-12 year old) or 'j' ( is NOT a 9-12 year old),25,0,0,0
3/29/24,8:44:42,1,65b50fa832c828a13f2aa884,1,6.6.1,1,106,full,encoding,0,0,0,0,33,0,617,294,number_184_64a59e68b1306451705972ee.jpg,0,1,press 'f' (is a 9-12 year old) or 'j' ( is NOT a 9-12 year old),25,0,0,0
3/29/24,8:44:42,1,65b50fa832c828a13f2aa884,1,6.6.1,1,107,full,encoding,0,0,0,0,36,0,660,331,number_255_generated_photos_5e011d717b1b300007061ed3.jpg,2,1,press 'f' (is a 9-12 year old) or 'j' ( is NOT a 9-12 year old),27,0,0,0
3/29/24,8:44:42,1,65b50fa832c828a13f2aa884,1,6.6.1,1,108,full,encoding,0,0,0,0,33,0,1120,109,generated_photos_5e68826c6d3b380006f0a285.png.jpg,0,1,press 'f' (is a 9-12 year old) or 'j' ( is NOT a 9-12 year old),25,0,0,0
3/29/24,8:44:42,1,65b50fa832c828a13f2aa884,1,6.6.1,1,109,full,encoding,0,0,0,0,36,0,624,37,generated_photos_5e685d0b6d3b380006e82345.png.jpg,0,1,press 'f' (is a 9-12 year old) or 'j' ( is NOT a 9-12 year old),25,0,0,0
3/29/24,8:44:42,1,65b50fa832c828a13f2aa884,1,6.6.1,1,110,full,encoding,0,0,0,0,33,0,818,33,generated_photos_5e684c9a6d3b380006e46d9b.png.jpg,0,1,press 'f' (is a 9-12 year old) or 'j' ( is NOT a 9-12 year old),25,0,0,0
3/29/24,8:44:42,1,65b50fa832c828a13f2aa884,1,6.6.1,1,111,full,encoding,0,0,0,0,36,0,700,162,generated_photos_5f182dfd1f67b00006861571.png.jpg,0,1,press 'f' (is a 9-12 year old) or 'j' ( is NOT a 9-12 year old),25,0,0,0
3/29/24,8:44:42,1,65b50fa832c828a13f2aa884,1,6.6.1,1,112,full,encoding,0,0,0,0,36,0,802,274,number_156_generated_photos_5f8973c45bec83000839c865.jpg,0,1,press 'f' (is a 9-12 year old) or 'j' ( is NOT a 9-12 year old),25,0,0,0
3/29/24,8:44:42,1,65b50fa832c828a13f2aa884,1,6.6.1,1,113,full,encoding,0,0,0,0,36,0,694,282,number_167_649efcdbb130640007615ec3.jpg,0,1,press 'f' (is a 9-12 year old) or 'j' ( is NOT a 9-12 year old),25,0,0,0
3/29/24,8:44:42,1,65b50fa832c828a13f2aa884,1,6.6.1,1,114,full,encoding,0,0,0,0,33,0,965,104,generated_photos_5e68658c6d3b380006ea0c7b.png.jpg,0,1,press 'f' (is a 9-12 year old) or 'j' ( is NOT a 9-12 year old),25,0,0,0
3/29/24,8:44:42,1,65b50fa832c828a13f2aa884,1,6.6.1,1,115,full,encoding,0,0,0,0,33,0,611,215,number_26_generated_photos_5e681cd86d3b380006d9f0c9.jpg,0,1,press 'f' (is a 9-12 year old) or 'j' ( is NOT a 9-12 year old),25,0,0,0
3/29/24,8:44:42,1,65b50fa832c828a13f2aa884,1,6.6.1,1,116,full,encoding,0,0,0,0,36,0,748,171,generated_photos_5f896ea85bec83000837ebe9.png.jpg,0,1,press 'f' (is a 9-12 year old) or 'j' ( is NOT a 9-12 year old),25,0,0,0
3/29/24,8:44:42,1,65b50fa832c828a13f2aa884,1,6.6.1,1,117,full,encoding,0,0,0,0,33,0,1629,88,generated_photos_5e68072a6d3b380006d505eb.png.jpg,0,1,press 'f' (is a 9-12 year old) or 'j' ( is NOT a 9-12 year old),25,0,0,0
3/29/24,8:44:42,1,65b50fa832c828a13f2aa884,1,6.6.1,1,118,full,encoding,0,0,0,0,36,0,653,156,generated_photos_5f181b5f1f67b0000680790f.png.jpg,0,1,press 'f' (is a 9-12 year old) or 'j' ( is NOT a 9-12 year old),25,0,0,0
3/29/24,8:44:42,1,65b50fa832c828a13f2aa884,1,6.6.1,1,119,full,encoding,0,0,0,0,36,0,1934,181,generated_photos_5f1830b61f67b0000686da09.png.jpg,0,1,press 'f' (is a 9-12 year old) or 'j' ( is NOT a 9-12 year old),25,0,0,0
3/29/24,8:44:42,1,65b50fa832c828a13f2aa884,1,6.6.1,1,120,full,encoding,0,0,0,0,36,0,1084,46,generated_photos_5e687e4d6d3b380006efb195.png.jpg,0,1,press 'f' (is a 9-12 year old) or 'j' ( is NOT a 9-12 year old),25,0,0,0
3/29/24,8:44:42,1,65b50fa832c828a13f2aa884,1,6.6.1,1,121,full,encoding,0,0,0,0,36,0,963,299,number_193_generated_photos_5f1822561f67b00006829527_fixed.jpg,0,1,press 'f' (is a 9-12 year old) or 'j' ( is NOT a 9-12 year old),25,0,0,0
3/29/24,8:44:42,1,65b50fa832c828a13f2aa884,1,6.6.1,1,122,full,encoding,0,0,0,0,36,0,1139,327,number_247_generated_photos_5f1822e21f67b0000682bfff2.jpg_fixed.jpg,0,1,press 'f' (is a 9-12 year old) or 'j' ( is NOT a 9-12 year old),25,0,0,0
3/29/24,8:44:42,1,65b50fa832c828a13f2aa884,1,6.6.1,1,123,full,encoding,0,0,0,0,33,0,695,120,generated_photos_5e6827086d3b380006dc2553.png.jpg,0,1,press 'f' (is a 9-12 year old) or 'j' ( is NOT a 9-12 year old),25,0,0,0
3/29/24,8:44:42,1,65b50fa832c828a13f2aa884,1,6.6.1,1,124,full,encoding,0,0,0,0,33,0,625,230,number_45_generated_photos_5e68482c6d3b380006e36bf9.jpg,0,1,press 'f' (is a 9-12 year old) or 'j' ( is NOT a 9-12 year old),25,0,0,0
3/29/24,8:44:42,1,65b50fa832c828a13f2aa884,1,6.6.1,1,125,full,encoding,0,0,0,0,33,0,1070,191,generated_photos_5f1822891f67b0000682a430.png.jpg,0,1,press 'f' (is a 9-12 year old) or 'j' ( is NOT a 9-12 year old),25,0,0,0
3/29/24,8:44:42,1,65b50fa832c828a13f2aa884,1,6.6.1,1,126,full,encoding,0,0,0,0,33,0,1184,161,generated_photos_5f182c2b1f67b00006858c78.png.jpg,0,1,press 'f' (is a 9-12 year old) or 'j' ( is NOT a 9-12 year old),25,0,0,0
3/29/24,8:44:42,1,65b50fa832c828a13f2aa884,1,6.6.1,1,127,full,encoding,0,0,0,0,33,0,1272,247,number_92_generated_photos_5e6866a46d3b380006ea4e27.jpg,0,1,press 'f' (is a 9-12 year old) or 'j' ( is NOT a 9-12 year old),25,0,0,0
3/29/24,8:44:42,1,65b50fa832c828a13f2aa884,1,6.6.1,1,128,full,encoding,0,0,0,0,36,0,1565,73,generated_photos_5e6861cc6d3b380006e936bb.png.jpg,0,1,press 'f' (is a 9-12 year old) or 'j' ( is NOT a 9-12 year old),25,0,0,0
3/29/24,8:44:42,1,65b50fa832c828a13f2aa884,1,6.6.1,1,129,full,encoding,0,0,0,0,36,0,814,303,number_197_generated_photos_5e684b736d3b380006e42b47.jpg,0,1,press 'f' (is a 9-12 year old) or 'j' ( is NOT a 9-12 year old),25,0,0,0
3/29/24,8:44:42,1,65b50fa832c828a13f2aa884,1,6.6.1,1,130,full,encoding,0,0,0,0,33,0,674,136,generated_photos_5e6857546d3b380006e6dae5.png.jpg,0,1,press 'f' (is a 9-12 year old) or 'j' ( is NOT a 9-12 year old),25,0,0,0
3/29/24,8:44:42,1,65b50fa832c828a13f2aa884,1,6.6.1,1,131,full,encoding,0,0,0,0,36,0,708,288,number_174_64a5883fb13064000962c64f.jpg,0,1,press 'f' (is a 9-12 year old) or 'j' ( is NOT a 9-12 year old),25,0,0,0
3/29/24,8:44:42,1,65b50fa832c828a13f2aa884,1,6.6.1,1,132,full,encoding,0,0,0,0,36,0,762,292,number_178_64a59670b13064000d629d99.jpg,0,1,press 'f' (is a 9-12 year old) or 'j' ( is NOT a 9-12 year old),25,0,0,0
3/29/24,8:44:42,1,65b50fa832c828a13f2aa884,1,6.6.1,1,133,full,encoding,0,0,0,0,36,0,801,52,generated_photos_5e6808b66d3b380006d55e75.png.jpg,0,1,press 'f' (is a 9-12 year old) or 'j' ( is NOT a 9-12 year old),25,0,0,0
3/29/24,8:44:42,1,65b50fa832c828a13f2aa884,1,6.6.1,1,134,full,encoding,0,0,0,0,33,0,825,242,number_65_generated_photos_5e6876586d3b380006edd923.jpg,0,1,press 'f' (is a 9-12 year old) or 'j' ( is NOT a 9-12 year old),25,0,0,0
3/29/24,8:44:42,1,65b50fa832c828a13f2aa884,1,6.6.1,1,135,full,encoding,0,0,0,0,33,0,666,55,generated_photos_5e6809d16d3b380006d5a0e7.png.jpg,0,1,press 'f' (is a 9-12 year old) or 'j' ( is NOT a 9-12 year old),25,0,0,0
3/29/24,8:44:42,1,65b50fa832c828a13f2aa884,1,6.6.1,1,136,full,encoding,0,0,0,0,33,0,1000,256,number_111_generated_photos_5e68276e6d3b380006dc3b19.jpg_fixed.jpg,0,1,press 'f' (is a 9-12 year old) or 'j' ( is NOT a 9-12 year old),25,0,0,0
3/29/24,8:44:42,1,65b50fa832c828a13f2aa884,1,6.6.1,1,137,full,encoding,0,0,0,0,33,0,489,4,generated_photos_5e680a5b6d3b380006d5c0a5.png.jpg,0,1,press 'f' (is a 9-12 year old) or 'j' ( is NOT a 9-12 year old),25,0,0,0
3/29/24,8:44:42,1,65b50fa832c828a13f2aa884,1,6.6.1,1,138,full,encoding,0,0,0,0,33,0,594,50,generated_photos_5e6806d06d3b380006d4f239.png.jpg,0,1,press 'f' (is a 9-12 year old) or 'j' ( is NOT a 9-12 year old),25,0,0,0
3/29/24,8:44:42,1,65b50fa832c828a13f2aa884,1,6.6.1,1,139,full,encoding,0,0,0,0,33,0,601,92,generated_photos_5e68186e6d3b380006d9008b.png.jpg,0,1,press 'f' (is a 9-12 year old) or 'j' ( is NOT a 9-12 year old),25,0,0,0
3/29/24,8:44:42,1,65b50fa832c828a13f2aa884,1,6.6.1,1,140,full,encoding,0,0,0,0,33,0,594,71,generated_photos_5e6845e36d3b380006e2e8cb.png.jpg,0,1,press 'f' (is a 9-12 year old) or 'j' ( is NOT a 9-12 year old),25,0,0,0
3/29/24,8:44:42,1,65b50fa832c828a13f2aa884,1,6.6.1,1,141,full,encoding,0,0,0,0,33,0,805,129,generated_photos_5e6851046d3b380006e56c3b.png.jpg,2,1,press 'f' (is a 9-12 year old) or 'j' ( is NOT a 9-12 year old),27,0,0,0
3/29/24,8:44:42,1,65b50fa832c828a13f2aa884,1,6.6.1,1,142,full,encoding,0,0,0,0,33,0,1081,173,generated_photos_5f897ae85bec8300083c6d27.png.jpg,0,1,press 'f' (is a 9-12 year old) or 'j' ( is NOT a 9-12 year old),25,0,0,0
3/29/24,8:44:42,1,65b50fa832c828a13f2aa884,1,6.6.1,1,143,full,encoding,0,0,0,0,33,0,717,167,generated_photos_5f896cb65bec830008372ce8.png.jpg,0,1,press 'f' (is a 9-12 year old) or 'j' ( is NOT a 9-12 year old),25,0,0,0
3/29/24,8:44:42,1,65b50fa832c828a13f2aa884,1,6.6.1,1,144,full,encoding,0,0,0,0,33,0,570,77,generated_photos_5e6864ff6d3b380006e9ec05.png.jpg,0,1,press 'f' (is a 9-12 year old) or 'j' ( is NOT a 9-12 year old),25,0,0,0
3/29/24,8:44:42,1,65b50fa832c828a13f2aa884,1,6.6.1,1,145,full,encoding,0,0,0,0,36,0,800,324,number_243_generated_photos_5e685af96d3b380006e7abc12.jpg,0,1,press 'f' (is a 9-12 year old) or 'j' ( is NOT a 9-12 year old),25,0,0,0
3/29/24,8:44:42,1,65b50fa832c828a13f2aa884,1,6.6.1,1,146,full,encoding,0,0,0,0,33,0,700,205,number_12_generated_photos_5e6816b96d3b380006d89acf.jpg,0,1,press 'f' (is a 9-12 year old) or 'j' ( is NOT a 9-12 year old),25,0,0,0
3/29/24,8:44:42,1,65b50fa832c828a13f2aa884,1,6.6.1,1,147,full,encoding,0,0,0,0,33,0,774,15,generated_photos_5e681c096d3b380006d9c46b.png.jpg,0,1,press 'f' (is a 9-12 year old) or 'j' ( is NOT a 9-12 year old),25,0,0,0
3/29/24,8:44:42,1,65b50fa832c828a13f2aa884,1,6.6.1,1,148,full,encoding,0,0,0,0,33,0,994,100,generated_photos_5e68559e6d3b380006e676b1.png.jpg,0,1,press 'f' (is a 9-12 year old) or 'j' ( is NOT a 9-12 year old),25,0,0,0
3/29/24,8:44:42,1,65b50fa832c828a13f2aa884,1,6.6.1,1,149,full,encoding,0,0,0,0,33,0,821,212,number_23_generated_photos_5f8974c05bec8300083a230a.jpg,0,1,press 'f' (is a 9-12 year old) or 'j' ( is NOT a 9-12 year old),25,0,0,0
3/29/24,8:44:42,1,65b50fa832c828a13f2aa884,1,6.6.1,1,150,full,encoding,0,0,0,0,36,0,732,182,generated_photos_5f1833f01f67b0000687c5ec.png.jpg,0,1,press 'f' (is a 9-12 year old) or 'j' ( is NOT a 9-12 year old),25,0,0,0
3/29/24,8:44:42,1,65b50fa832c828a13f2aa884,1,6.6.1,1,151,full,encoding,0,0,0,0,33,0,1046,112,generated_photos_5e6802006d3b380006d3dd17.png.jpg,0,1,press 'f' (is a 9-12 year old) or 'j' ( is NOT a 9-12 year old),25,0,0,0
3/29/24,8:44:42,1,65b50fa832c828a13f2aa884,1,6.6.1,1,152,full,encoding,0,0,0,0,33,0,1353,310,number_219_generated_photos_5f8971e75bec830008391d3e_fixed.jpg,0,1,press 'f' (is a 9-12 year old) or 'j' ( is NOT a 9-12 year old),25,0,0,0
3/29/24,8:44:42,1,65b50fa832c828a13f2aa884,1,6.6.1,1,153,full,encoding,0,0,0,0,36,0,679,308,number_203_generated_photos_5f1811f71f67b000067d6728_fixed.jpg,0,1,press 'f' (is a 9-12 year old) or 'j' ( is NOT a 9-12 year old),25,0,0,0
3/29/24,8:44:42,1,65b50fa832c828a13f2aa884,1,6.6.1,1,154,full,encoding,0,0,0,0,33,0,1646,97,generated_photos_5e68453a6d3b380006e2c2dd.png.jpg,0,1,press 'f' (is a 9-12 year old) or 'j' ( is NOT a 9-12 year old),25,0,0,0
3/29/24,8:44:42,1,65b50fa832c828a13f2aa884,1,6.6.1,1,155,full,encoding,0,0,0,0,36,0,795,54,generated_photos_5e6809c36d3b380006d59d93.png.jpg,0,1,press 'f' (is a 9-12 year old) or 'j' ( is NOT a 9-12 year old),25,0,0,0
3/29/24,8:44:42,1,65b50fa832c828a13f2aa884,1,6.6.1,1,156,full,encoding,0,0,0,0,33,0,822,236,number_52_generated_photos_5e6837e76d3b380006dfc683.jpg,0,1,press 'f' (is a 9-12 year old) or 'j' ( is NOT a 9-12 year old),25,0,0,0
3/29/24,8:44:42,1,65b50fa832c828a13f2aa884,1,6.6.1,1,157,full,encoding,0,0,0,0,33,0,1410,60,generated_photos_5e6814b76d3b380006d8240b.png.jpg,0,1,press 'f' (is a 9-12 year old) or 'j' ( is NOT a 9-12 year old),25,0,0,0
3/29/24,8:44:42,1,65b50fa832c828a13f2aa884,1,6.6.1,1,158,full,encoding,0,0,0,0,33,0,719,276,number_158_649eecfcb13064000961ffc8.jpg,0,1,press 'f' (is a 9-12 year old) or 'j' ( is NOT a 9-12 year old),25,0,0,0
3/29/24,8:44:42,1,65b50fa832c828a13f2aa884,1,6.6.1,1,159,full,encoding,0,0,0,0,33,0,814,79,generated_photos_5e6867aa6d3b380006ea8afb.png.jpg,0,1,press 'f' (is a 9-12 year old) or 'j' ( is NOT a 9-12 year old),25,0,0,0
3/29/24,8:44:42,1,65b50fa832c828a13f2aa884,1,6.6.1,1,160,full,encoding,0,0,0,0,33,0,600,57,generated_photos_5e6811d56d3b380006d77b0b.png.jpg,0,1,press 'f' (is a 9-12 year old) or 'j' ( is NOT a 9-12 year old),25,0,0,0
3/29/24,8:44:42,1,65b50fa832c828a13f2aa884,1,6.6.1,1,161,full,encoding,0,0,0,0,33,0,572,117,generated_photos_5e6822586d3b380006db21ff.png.jpg,0,1,press 'f' (is a 9-12 year old) or 'j' ( is NOT a 9-12 year old),25,0,0,0
3/29/24,8:44:42,1,65b50fa832c828a13f2aa884,1,6.6.1,1,162,full,encoding,0,0,0,0,33,0,728,217,number_28_generated_photos_5f18111c1f67b000067d1d7b.jpg,0,1,press 'f' (is a 9-12 year old) or 'j' ( is NOT a 9-12 year old),25,0,0,0
3/29/24,8:44:42,1,65b50fa832c828a13f2aa884,1,6.6.1,1,163,full,encoding,0,0,0,0,33,0,741,139,generated_photos_5e6860916d3b380006e8f043.png.jpg,0,1,press 'f' (is a 9-12 year old) or 'j' ( is NOT a 9-12 year old),25,0,0,0
3/29/24,8:44:42,1,65b50fa832c828a13f2aa884,1,6.6.1,1,164,full,encoding,0,0,0,0,33,0,1369,252,number_100_generated_photos_5f896f9d5bec830008384739fixed.jpg,0,1,press 'f' (is a 9-12 year old) or 'j' ( is NOT a 9-12 year old),25,0,0,0
3/29/24,8:44:42,1,65b50fa832c828a13f2aa884,1,6.6.1,1,165,full,encoding,0,0,0,0,33,0,1205,206,number_15_generated_photos_5f182dba1f67b0000686018e.jpg,0,1,press 'f' (is a 9-12 year old) or 'j' ( is NOT a 9-12 year old),25,0,0,0
3/29/24,8:44:42,1,65b50fa832c828a13f2aa884,1,6.6.1,1,166,full,encoding,0,0,0,0,33,0,712,203,number_8_generated_photos_5e681f0a6d3b380006da696d.jpg,0,1,press 'f' (is a 9-12 year old) or 'j' ( is NOT a 9-12 year old),25,0,0,0
3/29/24,8:44:42,1,65b50fa832c828a13f2aa884,1,6.6.1,1,167,full,encoding,0,0,0,0,36,0,2638,291,number_177_64a594ebb13064000962c916.jpg,0,1,press 'f' (is a 9-12 year old) or 'j' ( is NOT a 9-12 year old),25,0,0,0
3/29/24,8:44:42,1,65b50fa832c828a13f2aa884,1,6.6.1,1,168,full,encoding,0,0,0,0,33,0,1017,226,number_41_generated_photos_5f8973905bec83000839b59c.jpg,0,1,press 'f' (is a 9-12 year old) or 'j' ( is NOT a 9-12 year old),25,0,0,0
3/29/24,8:44:42,1,65b50fa832c828a13f2aa884,1,6.6.1,1,169,full,encoding,0,0,0,0,33,0,736,81,generated_photos_5e6875aa6d3b380006edb253.png.jpg,0,1,press 'f' (is a 9-12 year old) or 'j' ( is NOT a 9-12 year old),26,0,0,0
3/29/24,8:44:42,1,65b50fa832c828a13f2aa884,1,6.6.1,1,170,full,encoding,0,0,0,0,33,0,799,278,number_161_649ee1d1b13064000d61d3ae.jpg,0,1,press 'f' (is a 9-12 year old) or 'j' ( is NOT a 9-12 year old),25,0,0,0
3/29/24,8:44:42,1,65b50fa832c828a13f2aa884,1,6.6.1,1,171,full,encoding,0,0,0,0,33,0,961,45,generated_photos_5e687e3f6d3b380006efae57.png.jpg,0,1,press 'f' (is a 9-12 year old) or 'j' ( is NOT a 9-12 year old),25,0,0,0
3/29/24,8:44:42,1,65b50fa832c828a13f2aa884,1,6.6.1,1,172,full,retrieval_instructions,0,0,0,0,continue,0,13207,1,"Now you will be shown a second series of faces, although this time, your job is to figure out whether you saw the image in the last series or not.   You will have four response options: 'definitely old' means you are sure you saw the picture earlier,   'maybe old' means you think you saw the picture earlier,  'maybe new' means you don't think you saw the picture earlier,  and 'definitely new' means you are sure that you did not see the picture earlier.  Press Continue to begin.",0,1,,25,0,0,0
3/29/24,8:44:42,1,65b50fa832c828a13f2aa884,1,6.6.1,1,173,full,rating,0,0,0,0,3,1,5372,145,generated_photos_5e6871486d3b380006ecb73d.png.jpg,0,1,STUDIED,25,1,DID NOT STUDY,50
3/29/24,8:44:42,1,65b50fa832c828a13f2aa884,1,6.6.1,1,174,full,rating,0,0,0,0,1,1,3098,267,number_144_649e57b5b13064000961e718.jpg,0,1,STUDIED,25,1,DID NOT STUDY,50
3/29/24,8:44:42,1,65b50fa832c828a13f2aa884,1,6.6.1,1,175,full,rating,0,0,0,0,0,1,2355,10,generated_photos_5e680d216d3b380006d663ef.png.jpg,0,1,STUDIED,25,1,DID NOT STUDY,50
3/29/24,8:44:42,1,65b50fa832c828a13f2aa884,1,6.6.1,1,176,full,rating,0,0,0,0,0,1,2167,169,generated_photos_5f896ddb5bec830008379dc2.jpg,0,1,STUDIED,26,1,DID NOT STUDY,50
3/29/24,8:44:42,1,65b50fa832c828a13f2aa884,1,6.6.1,1,177,full,rating,0,0,0,0,0,1,1051,331,number_255_generated_photos_5e011d717b1b300007061ed3.jpg,0,1,STUDIED,25,1,DID NOT STUDY,50
3/29/24,8:44:42,1,65b50fa832c828a13f2aa884,1,6.6.1,1,178,full,rating,0,0,0,0,1,1,2541,249,number_96_generated_photos_5e6824606d3b380006db9319_fixed.jpg,0,1,STUDIED,25,1,DID NOT STUDY,50
3/29/24,8:44:42,1,65b50fa832c828a13f2aa884,1,6.6.1,1,179,full,rating,0,0,0,0,1,1,2635,2,15_W_M_008.jpg,0,1,STUDIED,25,1,DID NOT STUDY,50
3/29/24,8:44:42,1,65b50fa832c828a13f2aa884,1,6.6.1,1,180,full,rating,0,0,0,0,0,1,1043,173,generated_photos_5f897ae85bec8300083c6d27.png.jpg,0,1,STUDIED,25,1,DID NOT STUDY,50
3/29/24,8:44:42,1,65b50fa832c828a13f2aa884,1,6.6.1,1,181,full,rating,0,0,0,0,0,1,2428,302,number_196_generated_photos_5f1836711f67b00006887c7a.jpg_fixed.jpg,0,1,STUDIED,25,1,DID NOT STUDY,50
3/29/24,8:44:42,1,65b50fa832c828a13f2aa884,1,6.6.1,1,182,full,rating,0,0,0,0,3,1,5100,304,number_198_generated_photos_5f1805461f67b00006791aba_fixed.jpg,0,1,STUDIED,25,1,DID NOT STUDY,50
3/29/24,8:44:42,1,65b50fa832c828a13f2aa884,1,6.6.1,1,183,full,rating,0,0,0,0,2,1,2938,58,generated_photos_5e6812f36d3b380006d7bbcb.png.jpg,0,1,STUDIED,25,1,DID NOT STUDY,50
3/29/24,8:44:42,1,65b50fa832c828a13f2aa884,1,6.6.1,1,184,full,rating,0,0,0,0,0,1,1798,18,generated_photos_5e682a136d3b380006dcd199.png.jpg,0,1,STUDIED,25,1,DID NOT STUDY,50
3/29/24,8:44:42,1,65b50fa832c828a13f2aa884,1,6.6.1,1,185,full,rating,0,0,0,0,0,1,1425,41,generated_photos_5e686f216d3b380006ec3bcb.png.jpg,0,1,STUDIED,25,1,DID NOT STUDY,50
3/29/24,8:44:42,1,65b50fa832c828a13f2aa884,1,6.6.1,1,186,full,rating,0,0,0,0,1,1,2225,289,number_175_generated_photos_5e683c446d3b380006e0bc2f.jpg.png,0,1,STUDIED,25,1,DID NOT STUDY,50
3/29/24,8:44:42,1,65b50fa832c828a13f2aa884,1,6.6.1,1,187,full,rating,0,0,0,0,0,1,3014,197,generated_photos_5f8981325bec8300083ea601.png.jpg,0,1,STUDIED,25,1,DID NOT STUDY,50
3/29/24,8:44:42,1,65b50fa832c828a13f2aa884,1,6.6.1,1,188,full,rating,0,0,0,0,0,1,1681,160,generated_photos_5f182bcf1f67b0000685714e.png.jpg,0,1,STUDIED,25,1,DID NOT STUDY,50
3/29/24,8:44:42,1,65b50fa832c828a13f2aa884,1,6.6.1,1,189,full,rating,0,0,0,0,0,1,1069,187,generated_photos_5f18258e1f67b00006839049.png.jpg,0,1,STUDIED,25,1,DID NOT STUDY,50
3/29/24,8:44:42,1,65b50fa832c828a13f2aa884,1,6.6.1,1,190,full,rating,0,0,0,0,2,1,2515,141,generated_photos_5e6862566d3b380006e9552f.png.jpg,0,1,STUDIED,25,1,DID NOT STUDY,50
3/29/24,8:44:42,1,65b50fa832c828a13f2aa884,1,6.6.1,1,191,full,rating,0,0,0,0,1,1,2510,92,generated_photos_5e68186e6d3b380006d9008b.png.jpg,0,1,STUDIED,25,1,DID NOT STUDY,50
3/29/24,8:44:42,1,65b50fa832c828a13f2aa884,1,6.6.1,1,192,full,rating,0,0,0,0,3,1,2792,312,number_221_generated_photos_5f8977435bec8300083b10102_fixed.jpg,0,1,STUDIED,25,1,DID NOT STUDY,50
3/29/24,8:44:42,1,65b50fa832c828a13f2aa884,1,6.6.1,1,193,full,rating,0,0,0,0,2,1,2134,159,generated_photos_5f182ba91f67b0000685658a.png.jpg,0,1,STUDIED,25,1,DID NOT STUDY,50
3/29/24,8:44:42,1,65b50fa832c828a13f2aa884,1,6.6.1,1,194,full,rating,0,0,0,0,1,1,1930,266,number_143_649e54b7b130640007614652.jpg,0,1,STUDIED,25,1,DID NOT STUDY,50
3/29/24,8:44:42,1,65b50fa832c828a13f2aa884,1,6.6.1,1,195,full,rating,0,0,0,0,1,1,2353,327,number_247_generated_photos_5f1822e21f67b0000682bfff2.jpg_fixed.jpg,1,1,STUDIED,26,1,DID NOT STUDY,51
3/29/24,8:44:42,1,65b50fa832c828a13f2aa884,1,6.6.1,1,196,full,rating,0,0,0,0,1,1,2266,220,number_34_generated_photos_5e6843066d3b380006e242c3.jpg,0,1,STUDIED,25,1,DID NOT STUDY,50
3/29/24,8:44:42,1,65b50fa832c828a13f2aa884,1,6.6.1,1,197,full,rating,0,0,0,0,0,1,1848,83,generated_photos_5e6883c96d3b380006f0f19b.png.jpg,0,1,STUDIED,25,1,DID NOT STUDY,50
3/29/24,8:44:42,1,65b50fa832c828a13f2aa884,1,6.6.1,1,198,full,rating,0,0,0,0,3,1,3286,298,number_191_generated_photos_5f897cbe5bec8300083d1aac.jpg_fixed.jpg_fixed.jpg,0,1,STUDIED,25,1,DID NOT STUDY,50
3/29/24,8:44:42,1,65b50fa832c828a13f2aa884,1,6.6.1,1,199,full,rating,0,0,0,0,2,1,3854,217,number_28_generated_photos_5f18111c1f67b000067d1d7b.jpg,0,1,STUDIED,25,1,DID NOT STUDY,50
3/29/24,8:44:42,1,65b50fa832c828a13f2aa884,1,6.6.1,1,200,full,rating,0,0,0,0,2,1,3110,96,generated_photos_5e68395e6d3b380006e0185f.png.jpg,0,1,STUDIED,25,1,DID NOT STUDY,50
3/29/24,8:44:42,1,65b50fa832c828a13f2aa884,1,6.6.1,1,201,full,rating,0,0,0,0,1,1,2503,111,generated_photos_5e6801396d3b380006d3ae8b.png.jpg,0,1,STUDIED,25,1,DID NOT STUDY,50
3/29/24,8:44:42,1,65b50fa832c828a13f2aa884,1,6.6.1,1,202,full,rating,0,0,0,0,0,1,2973,184,generated_photos_5f8979fb5bec8300083c15eb.jpg,0,1,STUDIED,25,1,DID NOT STUDY,50
3/29/24,8:44:42,1,65b50fa832c828a13f2aa884,1,6.6.1,1,203,full,rating,0,0,0,0,0,1,1656,79,generated_photos_5e6867aa6d3b380006ea8afb.png.jpg,0,1,STUDIED,25,1,DID NOT STUDY,50
3/29/24,8:44:42,1,65b50fa832c828a13f2aa884,1,6.6.1,1,204,full,rating,0,0,0,0,1,1,3084,211,number_22_generated_photos_5e68362f6d3b380006df6721.jpg,0,1,STUDIED,25,1,DID NOT STUDY,50
3/29/24,8:44:42,1,65b50fa832c828a13f2aa884,1,6.6.1,1,205,full,rating,0,0,0,0,0,1,1403,26,generated_photos_5e682ecf6d3b380006ddcccd.png.jpg,0,1,STUDIED,25,1,DID NOT STUDY,50
3/29/24,8:44:42,1,65b50fa832c828a13f2aa884,1,6.6.1,1,206,full,rating,0,0,0,0,0,1,1546,295,number_186_64a5a1bab130640007621ded.jpg,0,1,STUDIED,25,1,DID NOT STUDY,50
3/29/24,8:44:42,1,65b50fa832c828a13f2aa884,1,6.6.1,1,207,full,rating,0,0,0,0,0,1,1611,224,number_39_generated_photos_5e687bf36d3b380006ef24b9.jpg,0,1,STUDIED,25,1,DID NOT STUDY,50
3/29/24,8:44:42,1,65b50fa832c828a13f2aa884,1,6.6.1,1,208,full,rating,0,0,0,0,2,1,1931,137,generated_photos_5e6858776d3b380006e71c8b.png.jpg,0,1,STUDIED,25,1,DID NOT STUDY,50
3/29/24,8:44:42,1,65b50fa832c828a13f2aa884,1,6.6.1,1,209,full,rating,0,0,0,0,3,1,2209,185,generated_photos_5f8981ea5bec8300083ee582.png.jpg,0,1,STUDIED,25,1,DID NOT STUDY,50
3/29/24,8:44:42,1,65b50fa832c828a13f2aa884,1,6.6.1,1,210,full,rating,0,0,0,0,0,1,2032,261,number_125_generated_photos_5e6883f06d3b380006f0fa67.jpg_fixed.jpg,0,1,STUDIED,25,1,DID NOT STUDY,50
3/29/24,8:44:42,1,65b50fa832c828a13f2aa884,1,6.6.1,1,211,full,rating,0,0,0,0,1,1,2264,213,number_24_generated_photos_5e6881196d3b380006f05583.jpg,0,1,STUDIED,25,1,DID NOT STUDY,50
3/29/24,8:44:42,1,65b50fa832c828a13f2aa884,1,6.6.1,1,212,full,rating,0,0,0,0,2,1,2811,55,generated_photos_5e6809d16d3b380006d5a0e7.png.jpg,0,1,STUDIED,25,1,DID NOT STUDY,50
3/29/24,8:44:42,1,65b50fa832c828a13f2aa884,1,6.6.1,1,213,full,rating,0,0,0,0,3,1,2832,75,generated_photos_5e6864f36d3b380006e9e94f.png.jpg,0,1,STUDIED,25,1,DID NOT STUDY,50
3/29/24,8:44:42,1,65b50fa832c828a13f2aa884,1,6.6.1,1,214,full,rating,0,0,0,0,0,1,1528,57,generated_photos_5e6811d56d3b380006d77b0b.png.jpg,0,1,STUDIED,25,1,DID NOT STUDY,50
3/29/24,8:44:42,1,65b50fa832c828a13f2aa884,1,6.6.1,1,215,full,rating,0,0,0,0,0,1,1252,52,generated_photos_5e6808b66d3b380006d55e75.png.jpg,0,1,STUDIED,25,1,DID NOT STUDY,50
3/29/24,8:44:42,1,65b50fa832c828a13f2aa884,1,6.6.1,1,216,full,rating,0,0,0,0,3,1,4818,322,number_237_generated_photos_5e011e9f7b1b30000707e98f.jpg_fixed.jpg,0,1,STUDIED,25,1,DID NOT STUDY,50
3/29/24,8:44:42,1,65b50fa832c828a13f2aa884,1,6.6.1,1,217,full,rating,0,0,0,0,0,1,2228,207,number_17_generated_photos_5f8983d15bec8300083f9c2e.jpg,0,1,STUDIED,25,1,DID NOT STUDY,50
3/29/24,8:44:42,1,65b50fa832c828a13f2aa884,1,6.6.1,1,218,full,rating,0,0,0,0,2,1,2939,325,number_245_generated_photos_5f896dae5bec830008378d78.jpg,0,1,STUDIED,25,1,DID NOT STUDY,50
3/29/24,8:44:42,1,65b50fa832c828a13f2aa884,1,6.6.1,1,219,full,rating,0,0,0,0,1,1,2045,94,generated_photos_5e68305a6d3b380006de235f.png.jpg,0,1,STUDIED,25,1,DID NOT STUDY,50
3/29/24,8:44:42,1,65b50fa832c828a13f2aa884,1,6.6.1,1,220,full,rating,0,0,0,0,0,1,1378,168,generated_photos_5f896d025bec830008374ab2.png.jpg,0,1,STUDIED,25,1,DID NOT STUDY,50
3/29/24,8:44:42,1,65b50fa832c828a13f2aa884,1,6.6.1,1,221,full,rating,0,0,0,0,1,1,1995,186,generated_photos_5f18030f1f67b00006785cf7.png.jpg,0,1,STUDIED,25,1,DID NOT STUDY,50
3/29/24,8:44:42,1,65b50fa832c828a13f2aa884,1,6.6.1,1,222,full,rating,0,0,0,0,1,1,3001,15,generated_photos_5e681c096d3b380006d9c46b.png.jpg,1,1,STUDIED,26,1,DID NOT STUDY,50
3/29/24,8:44:42,1,65b50fa832c828a13f2aa884,1,6.6.1,1,223,full,rating,0,0,0,0,2,1,1963,122,generated_photos_5e6828386d3b380006dc6787.png.jpg,0,1,STUDIED,25,1,DID NOT STUDY,50
3/29/24,8:44:42,1,65b50fa832c828a13f2aa884,1,6.6.1,1,224,full,rating,0,0,0,0,2,1,2430,297,number_190_64a6e984b130640007624d15.jpg,0,1,STUDIED,25,1,DID NOT STUDY,50
3/29/24,8:44:42,1,65b50fa832c828a13f2aa884,1,6.6.1,1,225,full,rating,0,0,0,0,0,1,1625,31,generated_photos_5e684ada6d3b380006e4090d.png.jpg,2,1,STUDIED,27,1,DID NOT STUDY,52
3/29/24,8:44:42,1,65b50fa832c828a13f2aa884,1,6.6.1,1,226,full,rating,0,0,0,0,1,1,1715,199,number_3_generated_photos_5f181f9a1f67b0000681bbf2.jpg,0,1,STUDIED,25,1,DID NOT STUDY,50
3/29/24,8:44:42,1,65b50fa832c828a13f2aa884,1,6.6.1,1,227,full,rating,0,0,0,0,2,1,2175,338,number_273_generated_photos_5e6876026d3b380006edc61f.jpg,0,1,STUDIED,25,1,DID NOT STUDY,50
3/29/24,8:44:42,1,65b50fa832c828a13f2aa884,1,6.6.1,1,228,full,rating,0,0,0,0,1,1,3411,88,generated_photos_5e68072a6d3b380006d505eb.png.jpg,0,1,STUDIED,25,1,DID NOT STUDY,50
3/29/24,8:44:42,1,65b50fa832c828a13f2aa884,1,6.6.1,1,229,full,rating,0,0,0,0,3,1,2948,134,generated_photos_5e6856486d3b380006e69db5.png.jpg,0,1,STUDIED,25,1,DID NOT STUDY,50
3/29/24,8:44:42,1,65b50fa832c828a13f2aa884,1,6.6.1,1,230,full,rating,0,0,0,0,1,1,1943,287,number_173_64a58706b13064000962c604.jpg,0,1,STUDIED,25,1,DID NOT STUDY,50
3/29/24,8:44:42,1,65b50fa832c828a13f2aa884,1,6.6.1,1,231,full,rating,0,0,0,0,0,1,2112,130,generated_photos_5e6851526d3b380006e57de1.png.jpg,0,1,STUDIED,25,1,DID NOT STUDY,50
3/29/24,8:44:42,1,65b50fa832c828a13f2aa884,1,6.6.1,1,232,full,rating,0,0,0,0,1,1,1710,147,generated_photos_5e6876326d3b380006edd0a7.png.jpg,0,1,STUDIED,25,1,DID NOT STUDY,50
3/29/24,8:44:42,1,65b50fa832c828a13f2aa884,1,6.6.1,1,233,full,rating,0,0,0,0,2,1,1770,11,generated_photos_5e680e016d3b380006d6974d.png.jpg,0,1,STUDIED,25,1,DID NOT STUDY,50
3/29/24,8:44:42,1,65b50fa832c828a13f2aa884,1,6.6.1,1,234,full,rating,0,0,0,0,3,1,3586,101,generated_photos_5e68581f6d3b380006e708a5.jpg,0,1,STUDIED,25,1,DID NOT STUDY,50
3/29/24,8:44:42,1,65b50fa832c828a13f2aa884,1,6.6.1,1,235,full,rating,0,0,0,0,2,1,8184,280,number_165_649ef994b130640007615e5d.jpg,0,1,STUDIED,25,1,DID NOT STUDY,50
3/29/24,8:44:42,1,65b50fa832c828a13f2aa884,1,6.6.1,1,236,full,rating,0,0,0,0,3,1,4730,313,number_223_generated_photos_5f896bc15bec83000836ce44_fixed.jpg,0,1,STUDIED,25,1,DID NOT STUDY,50
3/29/24,8:44:42,1,65b50fa832c828a13f2aa884,1,6.6.1,1,237,full,rating,0,0,0,0,1,1,3770,59,generated_photos_5e6814a06d3b380006d81edb.png.jpg,0,1,STUDIED,25,1,DID NOT STUDY,50
3/29/24,8:44:42,1,65b50fa832c828a13f2aa884,1,6.6.1,1,238,full,rating,0,0,0,0,0,1,1895,40,generated_photos_5e686bd56d3b380006eb7d4f.png.jpg,0,1,STUDIED,25,1,DID NOT STUDY,50
3/29/24,8:44:42,1,65b50fa832c828a13f2aa884,1,6.6.1,1,239,full,rating,0,0,0,0,2,1,1732,113,generated_photos_5e6802786d3b380006d3f945.png.jpg,0,1,STUDIED,25,1,DID NOT STUDY,50
3/29/24,8:44:42,1,65b50fa832c828a13f2aa884,1,6.6.1,1,240,full,rating,0,0,0,0,2,1,2013,103,generated_photos_5e68589f6d3b380006e72573.png.jpg,0,1,STUDIED,25,1,DID NOT STUDY,50
3/29/24,8:44:42,1,65b50fa832c828a13f2aa884,1,6.6.1,1,241,full,rating,0,0,0,0,1,1,1704,225,number_40_generated_photos_5e686daf6d3b380006ebe88d.jpg,0,1,STUDIED,25,1,DID NOT STUDY,50
3/29/24,8:44:42,1,65b50fa832c828a13f2aa884,1,6.6.1,1,242,full,rating,0,0,0,0,3,1,4600,300,number_194_generated_photos_5f18153a1f67b000067e82f4_fixed.jpg,0,1,STUDIED,25,1,DID NOT STUDY,50
3/29/24,8:44:42,1,65b50fa832c828a13f2aa884,1,6.6.1,1,243,full,rating,0,0,0,0,0,1,1262,104,generated_photos_5e68658c6d3b380006ea0c7b.png.jpg,0,1,STUDIED,25,1,DID NOT STUDY,50
3/29/24,8:44:42,1,65b50fa832c828a13f2aa884,1,6.6.1,1,244,full,rating,0,0,0,0,3,1,6931,301,number_195_generated_photos_5f897dd45bec8300083d7c4a_fixed.jpg,0,1,STUDIED,25,1,DID NOT STUDY,50
3/29/24,8:44:42,1,65b50fa832c828a13f2aa884,1,6.6.1,1,245,full,rating,0,0,0,0,0,1,2171,154,generated_photos_5f180cd81f67b000067ba88b.png.jpg,0,1,STUDIED,25,1,DID NOT STUDY,50
3/29/24,8:44:42,1,65b50fa832c828a13f2aa884,1,6.6.1,1,246,full,rating,0,0,0,0,0,1,1228,70,generated_photos_5e6840a26d3b380006e1b867.png.jpg,0,1,STUDIED,25,1,DID NOT STUDY,50
3/29/24,8:44:42,1,65b50fa832c828a13f2aa884,1,6.6.1,1,247,full,rating,0,0,0,0,1,1,1880,68,generated_photos_5e6833d76d3b380006dee537.png.jpg,0,1,STUDIED,25,1,DID NOT STUDY,50
3/29/24,8:44:42,1,65b50fa832c828a13f2aa884,1,6.6.1,1,248,full,rating,0,0,0,0,2,1,2230,12,generated_photos_5e680f676d3b380006d6ea5b.png.jpg,0,1,STUDIED,25,1,DID NOT STUDY,50
3/29/24,8:44:42,1,65b50fa832c828a13f2aa884,1,6.6.1,1,249,full,rating,0,0,0,0,1,1,2159,196,generated_photos_5f8979935bec8300083bf038.png.jpg,0,1,STUDIED,25,1,DID NOT STUDY,50
3/29/24,8:44:42,1,65b50fa832c828a13f2aa884,1,6.6.1,1,250,full,rating,0,0,0,0,0,1,1458,288,number_174_64a5883fb13064000962c64f.jpg,0,1,STUDIED,25,1,DID NOT STUDY,50
3/29/24,8:44:42,1,65b50fa832c828a13f2aa884,1,6.6.1,1,251,full,rating,0,0,0,0,2,1,1653,107,generated_photos_5e68726d6d3b380006ecf8c5.png.jpg,0,1,STUDIED,25,1,DID NOT STUDY,50
3/29/24,8:44:42,1,65b50fa832c828a13f2aa884,1,6.6.1,1,252,full,rating,0,0,0,0,2,1,1803,238,number_59_648f1828b1306400095feb38.jpg,0,1,STUDIED,25,1,DID NOT STUDY,50
3/29/24,8:44:42,1,65b50fa832c828a13f2aa884,1,6.6.1,1,253,full,rating,0,0,0,0,3,1,3435,310,number_219_generated_photos_5f8971e75bec830008391d3e_fixed.jpg,0,1,STUDIED,25,1,DID NOT STUDY,50
3/29/24,8:44:42,1,65b50fa832c828a13f2aa884,1,6.6.1,1,254,full,rating,0,0,0,0,1,1,2187,116,generated_photos_5e6818536d3b380006d8fa99.png.jpg,0,1,STUDIED,25,1,DID NOT STUDY,50
3/29/24,8:44:42,1,65b50fa832c828a13f2aa884,1,6.6.1,1,255,full,rating,0,0,0,0,0,1,1517,143,generated_photos_5e6866026d3b380006ea27dd.png.jpg,0,1,STUDIED,25,1,DID NOT STUDY,50
3/29/24,8:44:42,1,65b50fa832c828a13f2aa884,1,6.6.1,1,256,full,rating,0,0,0,0,2,1,1799,35,generated_photos_5e684fa56d3b380006e51cb7.png.jpg,0,1,STUDIED,25,1,DID NOT STUDY,50
3/29/24,8:44:42,1,65b50fa832c828a13f2aa884,1,6.6.1,1,257,full,rating,0,0,0,0,2,1,3146,210,number_21_generated_photos_5f8976825bec8300083ac7dd.jpg,0,1,STUDIED,25,1,DID NOT STUDY,50
3/29/24,8:44:42,1,65b50fa832c828a13f2aa884,1,6.6.1,1,258,full,rating,0,0,0,0,3,1,3700,337,number_268_generated_photos_5e6809926d3b380006d59233.jpg,0,1,STUDIED,25,1,DID NOT STUDY,50
3/29/24,8:44:42,1,65b50fa832c828a13f2aa884,1,6.6.1,1,259,full,rating,0,0,0,0,2,1,4432,284,number_169_generated_photos_5e68646c6d3b380006e9cb29.jpg,0,1,STUDIED,25,1,DID NOT STUDY,50
3/29/24,8:44:42,1,65b50fa832c828a13f2aa884,1,6.6.1,1,260,full,rating,0,0,0,0,1,1,2118,171,generated_photos_5f896ea85bec83000837ebe9.png.jpg,0,1,STUDIED,25,1,DID NOT STUDY,50
3/29/24,8:44:42,1,65b50fa832c828a13f2aa884,1,6.6.1,1,261,full,rating,0,0,0,0,1,1,2504,203,number_8_generated_photos_5e681f0a6d3b380006da696d.jpg,0,1,STUDIED,25,1,DID NOT STUDY,50
3/29/24,8:44:42,1,65b50fa832c828a13f2aa884,1,6.6.1,1,262,full,rating,0,0,0,0,2,1,3028,206,number_15_generated_photos_5f182dba1f67b0000686018e.jpg,0,1,STUDIED,25,1,DID NOT STUDY,50
3/29/24,8:44:42,1,65b50fa832c828a13f2aa884,1,6.6.1,1,263,full,rating,0,0,0,0,3,1,4862,336,number_266_generated_photos_5e685be66d3b380006e7e0b7.jpg,1,1,STUDIED,26,1,DID NOT STUDY,51
3/29/24,8:44:42,1,65b50fa832c828a13f2aa884,1,6.6.1,1,264,full,rating,0,0,0,0,0,1,2250,268,number_145_generated_photos_5f181b181f67b000068064c6.jpg,0,1,STUDIED,26,1,DID NOT STUDY,51
3/29/24,8:44:42,1,65b50fa832c828a13f2aa884,1,6.6.1,1,265,full,rating,0,0,0,0,1,1,1724,332,number_258_generated_photos_5e6879e16d3b380006eea955.jpg,0,1,STUDIED,25,1,DID NOT STUDY,50
3/29/24,8:44:42,1,65b50fa832c828a13f2aa884,1,6.6.1,1,266,full,rating,0,0,0,0,0,1,1525,142,generated_photos_5e6863946d3b380006e99b8d.png.jpg,0,1,STUDIED,25,1,DID NOT STUDY,50
3/29/24,8:44:42,1,65b50fa832c828a13f2aa884,1,6.6.1,1,267,full,rating,0,0,0,0,0,1,1925,150,generated_photos_5e6880416d3b380006f02473.png.jpg,0,1,STUDIED,25,1,DID NOT STUDY,50
3/29/24,8:44:42,1,65b50fa832c828a13f2aa884,1,6.6.1,1,268,full,rating,0,0,0,0,1,1,2153,293,number_180_64a59961b130640007621cba.jpg,0,1,STUDIED,25,1,DID NOT STUDY,50
3/29/24,8:44:42,1,65b50fa832c828a13f2aa884,1,6.6.1,1,269,full,rating,0,0,0,0,2,1,1997,339,number_274_generated_photos_5e683aca6d3b380006e068491.jpg,0,1,STUDIED,26,1,DID NOT STUDY,50
3/29/24,8:44:42,1,65b50fa832c828a13f2aa884,1,6.6.1,1,270,full,rating,0,0,0,0,2,1,2144,299,number_193_generated_photos_5f1822561f67b00006829527_fixed.jpg,0,1,STUDIED,25,1,DID NOT STUDY,50
3/29/24,8:44:42,1,65b50fa832c828a13f2aa884,1,6.6.1,1,271,full,rating,0,0,0,0,2,1,2259,106,generated_photos_5e68685e6d3b380006eab441.png.jpg,0,1,STUDIED,25,1,DID NOT STUDY,50
3/29/24,8:44:42,1,65b50fa832c828a13f2aa884,1,6.6.1,1,272,full,rating,0,0,0,0,1,1,4814,157,generated_photos_5f181bbc1f67b00006809502.png.jpg,0,1,STUDIED,25,1,DID NOT STUDY,50
3/29/24,8:44:42,1,65b50fa832c828a13f2aa884,1,6.6.1,1,273,full,rating,0,0,0,0,2,1,1898,60,generated_photos_5e6814b76d3b380006d8240b.png.jpg,0,1,STUDIED,25,1,DID NOT STUDY,50
3/29/24,8:44:42,1,65b50fa832c828a13f2aa884,1,6.6.1,1,274,full,rating,0,0,0,0,2,1,2563,272,number_153_17_B_M_009.jpg,0,1,STUDIED,25,1,DID NOT STUDY,50
3/29/24,8:44:42,1,65b50fa832c828a13f2aa884,1,6.6.1,1,275,full,rating,0,0,0,0,1,1,1702,22,generated_photos_5e682c446d3b380006dd4049.png.jpg,0,1,STUDIED,25,1,DID NOT STUDY,50
3/29/24,8:44:42,1,65b50fa832c828a13f2aa884,1,6.6.1,1,276,full,rating,0,0,0,0,3,1,2535,97,generated_photos_5e68453a6d3b380006e2c2dd.png.jpg,0,1,STUDIED,25,1,DID NOT STUDY,50
3/29/24,8:44:42,1,65b50fa832c828a13f2aa884,1,6.6.1,1,277,full,rating,0,0,0,0,1,1,2081,182,generated_photos_5f1833f01f67b0000687c5ec.png.jpg,0,1,STUDIED,25,1,DID NOT STUDY,50
3/29/24,8:44:42,1,65b50fa832c828a13f2aa884,1,6.6.1,1,278,full,rating,0,0,0,0,3,1,1951,316,number_227_generated_photos_5f8982ac5bec8300083f2ca4.jpg,0,1,STUDIED,25,1,DID NOT STUDY,50
3/29/24,8:44:42,1,65b50fa832c828a13f2aa884,1,6.6.1,1,279,full,rating,0,0,0,0,0,1,1617,32,generated_photos_5e684aec6d3b380006e40d01.png.jpg,0,1,STUDIED,25,1,DID NOT STUDY,50
3/29/24,8:44:42,1,65b50fa832c828a13f2aa884,1,6.6.1,1,280,full,rating,0,0,0,0,0,1,1419,227,number_42_generated_photos_5e682bf86d3b380006dd3009.jpg,0,1,STUDIED,25,1,DID NOT STUDY,50
3/29/24,8:44:42,1,65b50fa832c828a13f2aa884,1,6.6.1,1,281,full,rating,0,0,0,0,1,1,2019,108,generated_photos_5e68814a6d3b380006f060b7.png.jpg,0,1,STUDIED,25,1,DID NOT STUDY,50
3/29/24,8:44:42,1,65b50fa832c828a13f2aa884,1,6.6.1,1,282,full,rating,0,0,0,0,3,1,1955,296,number_187_64a5a4afb13064000d62a050.jpg,0,1,STUDIED,25,1,DID NOT STUDY,50
3/29/24,8:44:42,1,65b50fa832c828a13f2aa884,1,6.6.1,1,283,full,rating,0,0,0,0,1,1,1866,290,number_176_64a5918eb13064000d629cd7.jpg,0,1,STUDIED,25,1,DID NOT STUDY,50
3/29/24,8:44:42,1,65b50fa832c828a13f2aa884,1,6.6.1,1,284,full,rating,0,0,0,0,1,1,2241,36,generated_photos_5e685c2d6d3b380006e7f0a5.png.jpg,0,1,STUDIED,25,1,DID NOT STUDY,50
3/29/24,8:44:42,1,65b50fa832c828a13f2aa884,1,6.6.1,1,285,full,rating,0,0,0,0,3,1,2512,315,number_226_generated_photos_5f897cdc5bec8300083d2526_fixed.jpg,1,1,STUDIED,26,1,DID NOT STUDY,51
3/29/24,8:44:42,1,65b50fa832c828a13f2aa884,1,6.6.1,1,286,full,rating,0,0,0,0,2,1,2299,81,generated_photos_5e6875aa6d3b380006edb253.png.jpg,0,1,STUDIED,25,1,DID NOT STUDY,50
3/29/24,8:44:42,1,65b50fa832c828a13f2aa884,1,6.6.1,1,287,full,rating,0,0,0,0,2,1,1784,189,generated_photos_5f18266d1f67b0000683d3cf.png.jpg,0,1,STUDIED,25,1,DID NOT STUDY,50
3/29/24,8:44:42,1,65b50fa832c828a13f2aa884,1,6.6.1,1,288,full,rating,0,0,0,0,1,1,2280,46,generated_photos_5e687e4d6d3b380006efb195.png.jpg,0,1,STUDIED,25,1,DID NOT STUDY,50
3/29/24,8:44:42,1,65b50fa832c828a13f2aa884,1,6.6.1,1,289,full,rating,0,0,0,0,0,1,2301,309,number_217_generated_photos_5f8970705bec8300083893e6.jpg,0,1,STUDIED,25,1,DID NOT STUDY,50
3/29/24,8:44:42,1,65b50fa832c828a13f2aa884,1,6.6.1,1,290,full,rating,0,0,0,0,0,1,1954,65,generated_photos_5e6824c66d3b380006dba8f1.jpg,0,1,STUDIED,25,1,DID NOT STUDY,50
3/29/24,8:44:42,1,65b50fa832c828a13f2aa884,1,6.6.1,1,291,full,rating,0,0,0,0,3,1,2183,314,number_224_generated_photos_5e686ec96d3b380006ec27f7_fixed.jpg,0,1,STUDIED,25,1,DID NOT STUDY,50
3/29/24,8:44:42,1,65b50fa832c828a13f2aa884,1,6.6.1,1,292,full,rating,0,0,0,0,1,1,1999,198,number_2_generated_photos_5f182a0c1f67b0000684ebfe.jpg,0,1,STUDIED,25,1,DID NOT STUDY,50
3/29/24,8:44:42,1,65b50fa832c828a13f2aa884,1,6.6.1,1,293,full,rating,0,0,0,0,0,1,900,5,generated_photos_5e680bad6d3b380006d60e37.png.jpg,0,1,STUDIED,25,1,DID NOT STUDY,50
3/29/24,8:44:42,1,65b50fa832c828a13f2aa884,1,6.6.1,1,294,full,rating,0,0,0,0,3,1,2226,340,number_275_generated_photos_5e68013e6d3b380006d3afaf.jpg,0,1,STUDIED,25,1,DID NOT STUDY,50
3/29/24,8:44:42,1,65b50fa832c828a13f2aa884,1,6.6.1,1,295,full,rating,0,0,0,0,0,1,1047,53,generated_photos_5e6808ef6d3b380006d56c07.png.jpg,0,1,STUDIED,25,1,DID NOT STUDY,50
3/29/24,8:44:42,1,65b50fa832c828a13f2aa884,1,6.6.1,1,296,full,rating,0,0,0,0,1,1,2887,167,generated_photos_5f896cb65bec830008372ce8.png.jpg,0,1,STUDIED,25,1,DID NOT STUDY,50
3/29/24,8:44:42,1,65b50fa832c828a13f2aa884,1,6.6.1,1,297,full,rating,0,0,0,0,2,1,2037,246,number_86_generated_photos_5f8982765bec8300083f1849.jpg_fixed.jpg,0,1,STUDIED,25,1,DID NOT STUDY,50
3/29/24,8:44:42,1,65b50fa832c828a13f2aa884,1,6.6.1,1,298,full,rating,0,0,0,0,0,1,2307,120,generated_photos_5e6827086d3b380006dc2553.png.jpg,0,1,STUDIED,25,1,DID NOT STUDY,50
3/29/24,8:44:42,1,65b50fa832c828a13f2aa884,1,6.6.1,1,299,full,rating,0,0,0,0,2,1,1852,254,number_107_generated_photos_5e68054e6d3b380006d49dd5.jpg,0,1,STUDIED,25,1,DID NOT STUDY,50
3/29/24,8:44:42,1,65b50fa832c828a13f2aa884,1,6.6.1,1,300,full,rating,0,0,0,0,3,1,2173,276,number_158_649eecfcb13064000961ffc8.jpg,0,1,STUDIED,25,1,DID NOT STUDY,50
3/29/24,8:44:42,1,65b50fa832c828a13f2aa884,1,6.6.1,1,301,full,rating,0,0,0,0,3,1,3904,23,generated_photos_5e682d146d3b380006dd6c2f.png.jpg,0,1,STUDIED,25,1,DID NOT STUDY,50
3/29/24,8:44:42,1,65b50fa832c828a13f2aa884,1,6.6.1,1,302,full,rating,0,0,0,0,1,1,1894,29,generated_photos_5e683ef66d3b380006e156bb.png.jpg,0,1,STUDIED,25,1,DID NOT STUDY,50
3/29/24,8:44:42,1,65b50fa832c828a13f2aa884,1,6.6.1,1,303,full,rating,0,0,0,0,0,1,1804,218,number_29_generated_photos_5f1824031f67b000068317b6.jpg,2,1,STUDIED,27,1,DID NOT STUDY,52
3/29/24,8:44:42,1,65b50fa832c828a13f2aa884,1,6.6.1,1,304,full,rating,0,0,0,0,2,1,1989,241,number_64_648f221eb13064000d5fcd9e.jpg,0,1,STUDIED,25,1,DID NOT STUDY,50
3/29/24,8:44:42,1,65b50fa832c828a13f2aa884,1,6.6.1,1,305,full,rating,0,0,0,0,1,1,2906,47,generated_photos_5e687e796d3b380006efbbdb.png.jpg,0,1,STUDIED,25,1,DID NOT STUDY,50
3/29/24,8:44:42,1,65b50fa832c828a13f2aa884,1,6.6.1,1,306,full,rating,0,0,0,0,0,1,1455,72,generated_photos_5e6857bc6d3b380006e6f265.png.jpg,0,1,STUDIED,25,1,DID NOT STUDY,50
3/29/24,8:44:42,1,65b50fa832c828a13f2aa884,1,6.6.1,1,307,full,rating,0,0,0,0,0,1,1409,323,number_238_generated_photos_5e6807736d3b380006d515eb.jpg,1,1,STUDIED,26,1,DID NOT STUDY,51
3/29/24,8:44:42,1,65b50fa832c828a13f2aa884,1,6.6.1,1,308,full,rating,0,0,0,0,2,1,5045,294,number_184_64a59e68b1306451705972ee.jpg,0,1,STUDIED,25,1,DID NOT STUDY,50
3/29/24,8:44:42,1,65b50fa832c828a13f2aa884,1,6.6.1,1,309,full,rating,0,0,0,0,2,1,4211,43,generated_photos_5e687bf36d3b380006ef24df.jpg,0,1,STUDIED,25,1,DID NOT STUDY,50
3/29/24,8:44:42,1,65b50fa832c828a13f2aa884,1,6.6.1,1,310,full,rating,0,0,0,0,3,1,2180,235,number_51_generated_photos_5e6842a56d3b380006e22d07.jpg,0,1,STUDIED,26,1,DID NOT STUDY,53
3/29/24,8:44:42,1,65b50fa832c828a13f2aa884,1,6.6.1,1,311,full,rating,0,0,0,0,1,1,1750,39,generated_photos_5e686ba36d3b380006eb71ff.png.jpg,0,1,STUDIED,25,1,DID NOT STUDY,50
3/29/24,8:44:42,1,65b50fa832c828a13f2aa884,1,6.6.1,1,312,full,rating,0,0,0,0,0,1,1737,73,generated_photos_5e6861cc6d3b380006e936bb.png.jpg,2,1,STUDIED,26,1,DID NOT STUDY,51
3/29/24,8:44:42,1,65b50fa832c828a13f2aa884,1,6.6.1,1,313,full,rating,0,0,0,0,1,1,2052,226,number_41_generated_photos_5f8973905bec83000839b59c.jpg,0,1,STUDIED,25,1,DID NOT STUDY,50
3/29/24,8:44:42,1,65b50fa832c828a13f2aa884,1,6.6.1,1,314,full,rating,0,0,0,0,1,1,3185,285,number_170_649f0785b13064000d61d938.jpg,0,1,STUDIED,25,1,DID NOT STUDY,50
3/29/24,8:44:42,1,65b50fa832c828a13f2aa884,1,6.6.1,1,315,full,rating,0,0,0,0,2,1,1727,329,number_252_generated_photos_5f8983a95bec8300083f8cd4.jpg,0,1,STUDIED,25,1,DID NOT STUDY,50
3/29/24,8:44:42,1,65b50fa832c828a13f2aa884,1,6.6.1,1,316,full,rating,0,0,0,0,2,1,1776,174,generated_photos_5f897c545bec8300083cf520.png.jpg,0,1,STUDIED,25,1,DID NOT STUDY,50
3/29/24,8:44:42,1,65b50fa832c828a13f2aa884,1,6.6.1,1,317,full,rating,0,0,0,0,3,1,2032,317,number_229_generated_photos_5e6818e86d3b380006d91b91_fixed.jpg,0,1,STUDIED,25,1,DID NOT STUDY,50
3/29/24,8:44:42,1,65b50fa832c828a13f2aa884,1,6.6.1,1,318,full,rating,0,0,0,0,3,1,1829,183,generated_photos_5f8976a65bec8300083ad53f.png.jpg,0,1,STUDIED,25,1,DID NOT STUDY,50
3/29/24,8:44:42,1,65b50fa832c828a13f2aa884,1,6.6.1,1,319,full,rating,0,0,0,0,2,1,4257,119,generated_photos_5e6824996d3b380006db9f27.png.jpg,0,1,STUDIED,25,1,DID NOT STUDY,50
3/29/24,8:44:42,1,65b50fa832c828a13f2aa884,1,6.6.1,1,320,full,rating,0,0,0,0,1,1,3060,38,generated_photos_5e685d056d3b380006e821ed.png.jpg,0,1,STUDIED,25,1,DID NOT STUDY,50
3/29/24,8:44:42,1,65b50fa832c828a13f2aa884,1,6.6.1,1,321,full,rating,0,0,0,0,1,1,1587,6,generated_photos_5e680bd96d3b380006d61843.png.jpg,0,1,STUDIED,25,1,DID NOT STUDY,50
3/29/24,8:44:42,1,65b50fa832c828a13f2aa884,1,6.6.1,1,322,full,rating,0,0,0,0,1,1,1615,21,generated_photos_5e682c6d6d3b380006dd48bb.png.jpg,0,1,STUDIED,25,1,DID NOT STUDY,50
3/29/24,8:44:42,1,65b50fa832c828a13f2aa884,1,6.6.1,1,323,full,rating,0,0,0,0,2,1,2704,281,number_166_generated_photos_5f8982f75bec8300083f4930.jpg,0,1,STUDIED,25,1,DID NOT STUDY,50
3/29/24,8:44:42,1,65b50fa832c828a13f2aa884,1,6.6.1,1,324,full,rating,0,0,0,0,1,1,3524,250,number_98_generated_photos_5e6872876d3b380006ecfe9d.jpg,0,1,STUDIED,25,1,DID NOT STUDY,50
3/29/24,8:44:42,1,65b50fa832c828a13f2aa884,1,6.6.1,1,325,full,rating,0,0,0,0,0,1,1504,232,number_47_generated_photos_5f8978d85bec8300083bac73.jpg,0,1,STUDIED,25,1,DID NOT STUDY,50
3/29/24,8:44:42,1,65b50fa832c828a13f2aa884,1,6.6.1,1,326,full,rating,0,0,0,0,1,1,1654,124,generated_photos_5e6832506d3b380006de91bb.png.jpg,0,1,STUDIED,25,1,DID NOT STUDY,50
3/29/24,8:44:42,1,65b50fa832c828a13f2aa884,1,6.6.1,1,327,full,rating,0,0,0,0,2,1,2152,277,number_160_generated_photos_5e6849ac6d3b380006e3c4b7.jpg,0,1,STUDIED,25,1,DID NOT STUDY,50
3/29/24,8:44:42,1,65b50fa832c828a13f2aa884,1,6.6.1,1,328,full,rating,0,0,0,0,1,1,2985,89,generated_photos_5e68099e6d3b380006d594e3.png.jpg,0,1,STUDIED,25,1,DID NOT STUDY,50
3/29/24,8:44:42,1,65b50fa832c828a13f2aa884,1,6.6.1,1,329,full,rating,0,0,0,0,2,1,2213,16,generated_photos_5e681dd96d3b380006da2779.png.jpg,0,1,STUDIED,25,1,DID NOT STUDY,50
3/29/24,8:44:42,1,65b50fa832c828a13f2aa884,1,6.6.1,1,330,full,rating,0,0,0,0,2,1,3135,273,number_154_649eaf9eb13064000961f3c6.jpg,0,1,STUDIED,25,1,DID NOT STUDY,50
3/29/24,8:44:42,1,65b50fa832c828a13f2aa884,1,6.6.1,1,331,full,rating,0,0,0,0,1,1,1919,61,generated_photos_5e6815f56d3b380006d86e17.png.jpg,0,1,STUDIED,25,1,DID NOT STUDY,50
3/29/24,8:44:42,1,65b50fa832c828a13f2aa884,1,6.6.1,1,332,full,rating,0,0,0,0,2,1,2345,140,generated_photos_5e6861156d3b380006e90ddd.png.jpg,0,1,STUDIED,25,1,DID NOT STUDY,50
3/29/24,8:44:42,1,65b50fa832c828a13f2aa884,1,6.6.1,1,333,full,rating,0,0,0,0,1,1,1726,242,number_65_generated_photos_5e6876586d3b380006edd923.jpg,2,1,STUDIED,26,1,DID NOT STUDY,51
3/29/24,8:44:42,1,65b50fa832c828a13f2aa884,1,6.6.1,1,334,full,rating,0,0,0,0,1,1,1808,33,generated_photos_5e684c9a6d3b380006e46d9b.png.jpg,1,1,STUDIED,26,1,DID NOT STUDY,52
3/29/24,8:44:42,1,65b50fa832c828a13f2aa884,1,6.6.1,1,335,full,rating,0,0,0,0,0,1,1512,128,generated_photos_5e6849796d3b380006e3b943.png.jpg,0,1,STUDIED,25,1,DID NOT STUDY,50
3/29/24,8:44:42,1,65b50fa832c828a13f2aa884,1,6.6.1,1,336,full,rating,0,0,0,0,2,1,3050,17,generated_photos_5e681f986d3b380006da87a7.png.jpg,0,1,STUDIED,25,1,DID NOT STUDY,50
3/29/24,8:44:42,1,65b50fa832c828a13f2aa884,1,6.6.1,1,337,full,rating,0,0,0,0,3,1,2063,321,number_235_generated_photos_5f896cc45bec8300083732852.jpg,0,1,STUDIED,25,1,DID NOT STUDY,50
3/29/24,8:44:42,1,65b50fa832c828a13f2aa884,1,6.6.1,1,338,full,rating,0,0,0,0,2,1,2454,190,generated_photos_5f1816291f67b000067ed3f4.png.jpg,0,1,STUDIED,25,1,DID NOT STUDY,50
3/29/24,8:44:42,1,65b50fa832c828a13f2aa884,1,6.6.1,1,339,full,rating,0,0,0,0,1,1,2037,139,generated_photos_5e6860916d3b380006e8f043.png.jpg,0,1,STUDIED,25,1,DID NOT STUDY,50
3/29/24,8:44:42,1,65b50fa832c828a13f2aa884,1,6.6.1,1,340,full,rating,0,0,0,0,1,1,1717,231,number_46_generated_photos_5e687dcd6d3b380006ef93e3.jpg,0,1,STUDIED,25,1,DID NOT STUDY,50
3/29/24,8:44:42,1,65b50fa832c828a13f2aa884,1,6.6.1,1,341,full,rating,0,0,0,0,0,1,2305,105,generated_photos_5e68682d6d3b380006eaa8d9.jpg,0,1,STUDIED,25,1,DID NOT STUDY,50
3/29/24,8:44:42,1,65b50fa832c828a13f2aa884,1,6.6.1,1,342,full,rating,0,0,0,0,2,1,5164,164,generated_photos_5f182fae1f67b00006869140.png.jpg,0,1,STUDIED,25,1,DID NOT STUDY,50
3/29/24,8:44:42,1,65b50fa832c828a13f2aa884,1,6.6.1,1,343,full,rating,0,0,0,0,1,1,2247,181,generated_photos_5f1830b61f67b0000686da09.png.jpg,1,1,STUDIED,26,1,DID NOT STUDY,52
3/29/24,8:44:42,1,65b50fa832c828a13f2aa884,1,6.6.1,1,344,full,rating,0,0,0,0,0,1,2718,166,generated_photos_5f896c635bec830008370c6f.jpg,0,1,STUDIED,25,1,DID NOT STUDY,50
3/29/24,8:44:42,1,65b50fa832c828a13f2aa884,1,6.6.1,1,345,full,rating,0,0,0,0,2,1,2825,240,number_62_648f1bfdb1306400075f5f77.jpg,0,1,STUDIED,25,1,DID NOT STUDY,50
3/29/24,8:44:42,1,65b50fa832c828a13f2aa884,1,6.6.1,1,346,full,rating,0,0,0,0,1,1,3061,286,number_172_649f12b9b130640009620590.jpg,0,1,STUDIED,25,1,DID NOT STUDY,50
3/29/24,8:44:42,1,65b50fa832c828a13f2aa884,1,6.6.1,1,347,full,rating,0,0,0,0,0,1,2385,202,number_7_generated_photos_5e682d136d3b380006dd6bf7.jpg,0,1,STUDIED,25,1,DID NOT STUDY,50
3/29/24,8:44:42,1,65b50fa832c828a13f2aa884,1,6.6.1,1,348,full,rating,0,0,0,0,0,1,1927,216,number_27_generated_photos_5f18045a1f67b0000678ccb7.jpg,0,1,STUDIED,25,1,DID NOT STUDY,50
3/29/24,8:44:42,1,65b50fa832c828a13f2aa884,1,6.6.1,1,349,full,rating,0,0,0,0,2,1,3497,259,number_117_generated_photos_5e685f536d3b380006e8a885.jpg,0,1,STUDIED,25,1,DID NOT STUDY,50
3/29/24,8:44:42,1,65b50fa832c828a13f2aa884,1,6.6.1,1,350,full,rating,0,0,0,0,2,1,1555,44,generated_photos_5e687dd46d3b380006ef957b.png.jpg,0,1,STUDIED,25,1,DID NOT STUDY,50
3/29/24,8:44:42,1,65b50fa832c828a13f2aa884,1,6.6.1,1,351,full,rating,0,0,0,0,1,1,2982,252,number_100_generated_photos_5f896f9d5bec830008384739fixed.jpg,0,1,STUDIED,25,1,DID NOT STUDY,50
3/29/24,8:44:42,1,65b50fa832c828a13f2aa884,1,6.6.1,1,352,full,rating,0,0,0,0,1,1,1823,48,generated_photos_5e6802a56d3b380006d403b9.png.jpg,0,1,STUDIED,25,1,DID NOT STUDY,50
3/29/24,8:44:42,1,65b50fa832c828a13f2aa884,1,6.6.1,1,353,full,rating,0,0,0,0,1,1,1502,158,generated_photos_5f181e071f67b0000681457b.png.jpg,0,1,STUDIED,25,1,DID NOT STUDY,50
3/29/24,8:44:42,1,65b50fa832c828a13f2aa884,1,6.6.1,1,354,full,rating,0,0,0,0,2,1,1709,138,generated_photos_5e6860706d3b380006e8e8f5.png.jpg,0,1,STUDIED,25,1,DID NOT STUDY,50
3/29/24,8:44:42,1,65b50fa832c828a13f2aa884,1,6.6.1,1,355,full,rating,0,0,0,0,2,1,1204,13,generated_photos_5e681b016d3b380006d98d3b.png.jpg,0,1,STUDIED,25,1,DID NOT STUDY,50
3/29/24,8:44:42,1,65b50fa832c828a13f2aa884,1,6.6.1,1,356,full,rating,0,0,0,0,1,1,1199,80,generated_photos_5e6867da6d3b380006ea95fd.png.jpg,0,1,STUDIED,25,1,DID NOT STUDY,50
3/29/24,8:44:42,1,65b50fa832c828a13f2aa884,1,6.6.1,1,357,full,rating,0,0,0,0,0,1,1557,51,generated_photos_5e6807ff6d3b380006d53439.png.jpg,0,1,STUDIED,25,1,DID NOT STUDY,50
3/29/24,8:44:42,1,65b50fa832c828a13f2aa884,1,6.6.1,1,358,full,rating,0,0,0,0,1,1,1223,237,number_53_648f0fd6b1306400095fea5e.jpg,0,1,STUDIED,25,1,DID NOT STUDY,50
3/29/24,8:44:42,1,65b50fa832c828a13f2aa884,1,6.6.1,1,359,full,rating,0,0,0,0,3,1,2325,170,generated_photos_5f896e395bec83000837c1e6.png.jpg,0,1,STUDIED,25,1,DID NOT STUDY,50
3/29/24,8:44:42,1,65b50fa832c828a13f2aa884,1,6.6.1,1,360,full,rating,0,0,0,0,1,1,2293,109,generated_photos_5e68826c6d3b380006f0a285.png.jpg,0,1,STUDIED,25,1,DID NOT STUDY,50
3/29/24,8:44:42,1,65b50fa832c828a13f2aa884,1,6.6.1,1,361,full,rating,0,0,0,0,1,1,6165,34,generated_photos_5e684cf96d3b380006e482f7.png.jpg,2,1,STUDIED,28,1,DID NOT STUDY,51
3/29/24,8:44:42,1,65b50fa832c828a13f2aa884,1,6.6.1,1,362,full,rating,0,0,0,0,1,1,9653,162,generated_photos_5f182dfd1f67b00006861571.png.jpg,0,1,STUDIED,25,1,DID NOT STUDY,50
3/29/24,8:44:42,1,65b50fa832c828a13f2aa884,1,6.6.1,1,363,full,rating,0,0,0,0,3,1,2751,257,number_113_generated_photos_5e687b106d3b380006eeefd9_fixed.jpg,2,1,STUDIED,27,1,DID NOT STUDY,52
3/29/24,8:44:42,1,65b50fa832c828a13f2aa884,1,6.6.1,1,364,full,rating,0,0,0,0,3,1,2210,161,generated_photos_5f182c2b1f67b00006858c78.png.jpg,0,1,STUDIED,25,1,DID NOT STUDY,50
3/29/24,8:44:42,1,65b50fa832c828a13f2aa884,1,6.6.1,1,365,full,rating,0,0,0,0,1,1,1320,8,generated_photos_5e680c986d3b380006d6446f.png.jpg,0,1,STUDIED,25,1,DID NOT STUDY,50
3/29/24,8:44:42,1,65b50fa832c828a13f2aa884,1,6.6.1,1,366,full,rating,0,0,0,0,2,1,2802,115,generated_photos_5e6805836d3b380006d4a95d.png.jpg,0,1,STUDIED,25,1,DID NOT STUDY,50
3/29/24,8:44:42,1,65b50fa832c828a13f2aa884,1,6.6.1,1,367,full,rating,0,0,0,0,3,1,3600,24,generated_photos_5e682d726d3b380006dd8067.png.jpg,0,1,STUDIED,25,1,DID NOT STUDY,50
3/29/24,8:44:42,1,65b50fa832c828a13f2aa884,1,6.6.1,1,368,full,rating,0,0,0,0,1,1,1444,77,generated_photos_5e6864ff6d3b380006e9ec05.png.jpg,0,1,STUDIED,25,1,DID NOT STUDY,50
3/29/24,8:44:42,1,65b50fa832c828a13f2aa884,1,6.6.1,1,369,full,rating,0,0,0,0,0,1,956,99,generated_photos_5e68534d6d3b380006e5efe1.png.jpg,0,1,STUDIED,25,1,DID NOT STUDY,51
3/29/24,8:44:42,1,65b50fa832c828a13f2aa884,1,6.6.1,1,370,full,rating,0,0,0,0,2,1,1976,303,number_197_generated_photos_5e684b736d3b380006e42b47.jpg,0,1,STUDIED,25,1,DID NOT STUDY,50
3/29/24,8:44:42,1,65b50fa832c828a13f2aa884,1,6.6.1,1,371,full,rating,0,0,0,0,2,1,2482,19,generated_photos_5e682b816d3b380006dd1667.png.jpg,0,1,STUDIED,26,1,DID NOT STUDY,50
3/29/24,8:44:42,1,65b50fa832c828a13f2aa884,1,6.6.1,1,372,full,rating,0,0,0,0,1,1,1419,63,generated_photos_5e6819fe6d3b380006d956bf.png.jpg,0,1,STUDIED,25,1,DID NOT STUDY,50
3/29/24,8:44:42,1,65b50fa832c828a13f2aa884,1,6.6.1,1,373,full,rating,0,0,0,0,2,1,3087,74,generated_photos_5e6861d36d3b380006e9382b.png.jpg,0,1,STUDIED,25,1,DID NOT STUDY,50
3/29/24,8:44:42,1,65b50fa832c828a13f2aa884,1,6.6.1,1,374,full,rating,0,0,0,0,1,1,2671,201,number_6_generated_photos_5e686ef66d3b380006ec3235.jpg,0,1,STUDIED,25,1,DID NOT STUDY,50
3/29/24,8:44:42,1,65b50fa832c828a13f2aa884,1,6.6.1,1,375,full,rating,0,0,0,0,1,1,2415,229,number_44_generated_photos_5e6821c56d3b380006db014f.jpg,0,1,STUDIED,25,1,DID NOT STUDY,50
3/29/24,8:44:42,1,65b50fa832c828a13f2aa884,1,6.6.1,1,376,full,rating,0,0,0,0,1,1,3564,62,generated_photos_5e6817be6d3b380006d8d793.png.jpg,0,1,STUDIED,25,1,DID NOT STUDY,50
3/29/24,8:44:42,1,65b50fa832c828a13f2aa884,1,6.6.1,1,377,full,rating,0,0,0,0,0,1,2815,82,generated_photos_5e6875dc6d3b380006edbd99.png.jpg,0,1,STUDIED,25,1,DID NOT STUDY,50
3/29/24,8:44:42,1,65b50fa832c828a13f2aa884,1,6.6.1,1,378,full,rating,0,0,0,0,0,1,1363,37,generated_photos_5e685d0b6d3b380006e82345.png.jpg,0,1,STUDIED,26,1,DID NOT STUDY,51
3/29/24,8:44:42,1,65b50fa832c828a13f2aa884,1,6.6.1,1,379,full,rating,0,0,0,0,0,1,1363,91,generated_photos_5e68144e6d3b380006d80bc3.png.jpg,0,1,STUDIED,25,1,DID NOT STUDY,50
3/29/24,8:44:42,1,65b50fa832c828a13f2aa884,1,6.6.1,1,380,full,rating,0,0,0,0,2,1,2200,156,generated_photos_5f181b5f1f67b0000680790f.png.jpg,0,1,STUDIED,25,1,DID NOT STUDY,50
3/29/24,8:44:42,1,65b50fa832c828a13f2aa884,1,6.6.1,1,381,full,rating,0,0,0,0,2,1,2450,110,generated_photos_5e68889c6d3b380006f20beb.png.jpg,0,1,STUDIED,25,1,DID NOT STUDY,50
3/29/24,8:44:42,1,65b50fa832c828a13f2aa884,1,6.6.1,1,382,full,rating,0,0,0,0,2,1,2218,9,generated_photos_5e680d6a6d3b380006d6749d.png.jpg,0,1,STUDIED,25,1,DID NOT STUDY,50
3/29/24,8:44:42,1,65b50fa832c828a13f2aa884,1,6.6.1,1,383,full,rating,0,0,0,0,2,1,1988,192,generated_photos_5f1833951f67b0000687ab7c.png.jpg,0,1,STUDIED,25,1,DID NOT STUDY,50
3/29/24,8:44:42,1,65b50fa832c828a13f2aa884,1,6.6.1,1,384,full,rating,0,0,0,0,3,1,4041,54,generated_photos_5e6809c36d3b380006d59d93.png.jpg,0,1,STUDIED,25,1,DID NOT STUDY,50
3/29/24,8:44:42,1,65b50fa832c828a13f2aa884,1,6.6.1,1,385,full,rating,0,0,0,0,1,1,4164,76,generated_photos_5e6864f96d3b380006e9ea8f.png.jpg,0,1,STUDIED,25,1,DID NOT STUDY,50
3/29/24,8:44:42,1,65b50fa832c828a13f2aa884,1,6.6.1,1,386,full,rating,0,0,0,0,2,1,2279,87,generated_photos_5e68053f6d3b380006d49a5d.png.jpg,1,1,STUDIED,26,1,DID NOT STUDY,50
3/29/24,8:44:42,1,65b50fa832c828a13f2aa884,1,6.6.1,1,387,full,rating,0,0,0,0,0,1,3285,178,generated_photos_5f1818a41f67b000067fa177.png.jpg,1,1,STUDIED,26,1,DID NOT STUDY,51
3/29/24,8:44:42,1,65b50fa832c828a13f2aa884,1,6.6.1,1,388,full,rating,0,0,0,0,1,1,1672,102,generated_photos_5e68581f6d3b380006e708a5.png.jpg,0,1,STUDIED,26,1,DID NOT STUDY,51
3/29/24,8:44:42,1,65b50fa832c828a13f2aa884,1,6.6.1,1,389,full,rating,0,0,0,0,1,1,1791,121,generated_photos_5e6827556d3b380006dc35b5.png.jpg,0,1,STUDIED,26,1,DID NOT STUDY,51
3/29/24,8:44:42,1,65b50fa832c828a13f2aa884,1,6.6.1,1,390,full,rating,0,0,0,0,1,1,5857,308,number_203_generated_photos_5f1811f71f67b000067d6728_fixed.jpg,0,1,STUDIED,25,1,DID NOT STUDY,51
3/29/24,8:44:42,1,65b50fa832c828a13f2aa884,1,6.6.1,1,391,full,rating,0,0,0,0,1,1,2736,230,number_45_generated_photos_5e68482c6d3b380006e36bf9.jpg,0,1,STUDIED,25,1,DID NOT STUDY,50
3/29/24,8:44:42,1,65b50fa832c828a13f2aa884,1,6.6.1,1,392,full,rating,0,0,0,0,0,1,1207,45,generated_photos_5e687e3f6d3b380006efae57.png.jpg,0,1,STUDIED,25,1,DID NOT STUDY,50
3/29/24,8:44:42,1,65b50fa832c828a13f2aa884,1,6.6.1,1,393,full,rating,0,0,0,0,1,1,2463,27,generated_photos_5e682f816d3b380006ddf441.png.jpg,0,1,STUDIED,25,1,DID NOT STUDY,50
3/29/24,8:44:42,1,65b50fa832c828a13f2aa884,1,6.6.1,1,394,full,rating,0,0,0,0,2,1,2347,177,generated_photos_5f897efe5bec8300083de4a2.png.jpg,0,1,STUDIED,25,1,DID NOT STUDY,50
3/29/24,8:44:42,1,65b50fa832c828a13f2aa884,1,6.6.1,1,395,full,rating,0,0,0,0,2,1,1502,208,number_18_generated_photos_5f897b015bec8300083c764e.jpg,0,1,STUDIED,25,1,DID NOT STUDY,50
3/29/24,8:44:42,1,65b50fa832c828a13f2aa884,1,6.6.1,1,396,full,rating,0,0,0,0,2,1,1692,253,number_103_photo-by-face-generator_649758a0541e9a000cac3602.jpg,0,1,STUDIED,25,1,DID NOT STUDY,50
3/29/24,8:44:42,1,65b50fa832c828a13f2aa884,1,6.6.1,1,397,full,rating,0,0,0,0,0,1,6738,263,number_131_generated_photos_5e687c1a6d3b380006ef2e33.jpg,2,1,STUDIED,29,1,DID NOT STUDY,52
3/29/24,8:44:42,1,65b50fa832c828a13f2aa884,1,6.6.1,1,398,full,rating,0,0,0,0,1,1,3248,152,generated_photos_5e6883586d3b380006f0d83d.png.jpg,0,1,STUDIED,25,1,DID NOT STUDY,50
3/29/24,8:44:42,1,65b50fa832c828a13f2aa884,1,6.6.1,1,399,full,rating,0,0,0,0,2,1,1730,30,generated_photos_5e684a3b6d3b380006e3e547.png.jpg,0,1,STUDIED,25,1,DID NOT STUDY,50
3/29/24,8:44:42,1,65b50fa832c828a13f2aa884,1,6.6.1,1,400,full,rating,0,0,0,0,0,1,1402,118,generated_photos_5e6824906d3b380006db9d3b.png.jpg,0,1,STUDIED,25,1,DID NOT STUDY,50
3/29/24,8:44:42,1,65b50fa832c828a13f2aa884,1,6.6.1,1,401,full,rating,0,0,0,0,0,1,879,264,number_133_generated_photos_5e6881906d3b380006f0708b.jpg,0,1,STUDIED,25,1,DID NOT STUDY,50
3/29/24,8:44:42,1,65b50fa832c828a13f2aa884,1,6.6.1,1,402,full,rating,0,0,0,0,2,1,2058,131,generated_photos_5e6854356d3b380006e62483.png.jpg,0,1,STUDIED,25,1,DID NOT STUDY,50
3/29/24,8:44:42,1,65b50fa832c828a13f2aa884,1,6.6.1,1,403,full,rating,0,0,0,0,2,1,2660,270,number_148_649e6978b13064000d61be65.jpg,2,1,STUDIED,27,1,DID NOT STUDY,52
3/29/24,8:44:42,1,65b50fa832c828a13f2aa884,1,6.6.1,1,404,full,rating,0,0,0,0,2,1,1322,265,number_142_649e525cb13064000961e6a3.jpg,0,1,STUDIED,25,1,DID NOT STUDY,50
3/29/24,8:44:42,1,65b50fa832c828a13f2aa884,1,6.6.1,1,405,full,rating,0,0,0,0,2,1,1347,191,generated_photos_5f1822891f67b0000682a430.png.jpg,0,1,STUDIED,25,1,DID NOT STUDY,50
3/29/24,8:44:42,1,65b50fa832c828a13f2aa884,1,6.6.1,1,406,full,rating,0,0,0,0,0,1,1199,25,generated_photos_5e682e496d3b380006ddaf59.png.jpg,0,1,STUDIED,25,1,DID NOT STUDY,50
3/29/24,8:44:42,1,65b50fa832c828a13f2aa884,1,6.6.1,1,407,full,rating,0,0,0,0,2,1,2408,335,number_264_generated_photos_5e687c686d3b380006ef4041.jpg_fixed.jpg,0,1,STUDIED,25,1,DID NOT STUDY,50
3/29/24,8:44:42,1,65b50fa832c828a13f2aa884,1,6.6.1,1,408,full,rating,0,0,0,0,2,1,1670,291,number_177_64a594ebb13064000962c916.jpg,0,1,STUDIED,25,1,DID NOT STUDY,50
3/29/24,8:44:42,1,65b50fa832c828a13f2aa884,1,6.6.1,1,409,full,rating,0,0,0,0,3,1,3001,341,number_276_generated_photos_5e684eda6d3b380006e4ee9f.jpg,0,1,STUDIED,25,1,DID NOT STUDY,50
3/29/24,8:44:42,1,65b50fa832c828a13f2aa884,1,6.6.1,1,410,full,rating,0,0,0,0,1,1,2404,292,number_178_64a59670b13064000d629d99.jpg,0,1,STUDIED,25,1,DID NOT STUDY,50
3/29/24,8:44:42,1,65b50fa832c828a13f2aa884,1,6.6.1,1,411,full,rating,0,0,0,0,2,1,4594,219,number_33_generated_photos_5e682ad86d3b380006dcf5d3.jpg,0,1,STUDIED,25,1,DID NOT STUDY,50
3/29/24,8:44:42,1,65b50fa832c828a13f2aa884,1,6.6.1,1,412,full,rating,0,0,0,0,2,1,3287,50,generated_photos_5e6806d06d3b380006d4f239.png.jpg,0,1,STUDIED,25,1,DID NOT STUDY,50
3/29/24,8:44:42,1,65b50fa832c828a13f2aa884,1,6.6.1,1,413,full,rating,0,0,0,0,1,1,1387,200,number_4_generated_photos_5e6828166d3b380006dc5fe7.jpg,0,1,STUDIED,25,1,DID NOT STUDY,51
3/29/24,8:44:42,1,65b50fa832c828a13f2aa884,1,6.6.1,1,414,full,rating,0,0,0,0,2,1,2012,307,number_202_generated_photos_5e685cf26d3b380006e81d73.jpg_fixed.jpg,0,1,STUDIED,25,1,DID NOT STUDY,50
3/29/24,8:44:42,1,65b50fa832c828a13f2aa884,1,6.6.1,1,415,full,rating,0,0,0,0,1,1,6542,163,generated_photos_5f182f4c1f67b0000686762e.png.jpg,0,1,STUDIED,25,1,DID NOT STUDY,50
3/29/24,8:44:42,1,65b50fa832c828a13f2aa884,1,6.6.1,1,416,full,rating,0,0,0,0,2,1,4484,129,generated_photos_5e6851046d3b380006e56c3b.png.jpg,0,1,STUDIED,25,1,DID NOT STUDY,50
3/29/24,8:44:42,1,65b50fa832c828a13f2aa884,1,6.6.1,1,417,full,rating,0,0,0,0,1,1,1545,93,generated_photos_5e68248a6d3b380006db9be3.png.jpg,0,1,STUDIED,25,1,DID NOT STUDY,50
3/29/24,8:44:42,1,65b50fa832c828a13f2aa884,1,6.6.1,1,418,full,rating,0,0,0,0,1,1,1734,146,generated_photos_5e6876306d3b380006edd057.png.jpg,0,1,STUDIED,25,1,DID NOT STUDY,50
3/29/24,8:44:42,1,65b50fa832c828a13f2aa884,1,6.6.1,1,419,full,rating,0,0,0,0,2,1,1924,244,number_67_648f31a8b130645170574d90.jpg,0,1,STUDIED,25,1,DID NOT STUDY,50
3/29/24,8:44:42,1,65b50fa832c828a13f2aa884,1,6.6.1,1,420,full,rating,0,0,0,0,3,1,2315,305,number_200_generated_photos_5e686b376d3b380006eb59b7.jpg_fixed.jpg,0,1,STUDIED,25,1,DID NOT STUDY,50
3/29/24,8:44:42,1,65b50fa832c828a13f2aa884,1,6.6.1,1,421,full,rating,0,0,0,0,1,1,1529,256,number_111_generated_photos_5e68276e6d3b380006dc3b19.jpg_fixed.jpg,1,1,STUDIED,26,1,DID NOT STUDY,51
3/29/24,8:44:42,1,65b50fa832c828a13f2aa884,1,6.6.1,1,422,full,rating,0,0,0,0,1,1,1827,271,number_150_generated_photos_5e682e536d3b380006ddb179.jpg,0,1,STUDIED,25,1,DID NOT STUDY,50
3/29/24,8:44:42,1,65b50fa832c828a13f2aa884,1,6.6.1,1,423,full,rating,0,0,0,0,1,1,2101,136,generated_photos_5e6857546d3b380006e6dae5.png.jpg,0,1,STUDIED,26,1,DID NOT STUDY,51
3/29/24,8:44:42,1,65b50fa832c828a13f2aa884,1,6.6.1,1,424,full,rating,0,0,0,0,1,1,1661,205,number_12_generated_photos_5e6816b96d3b380006d89acf.jpg,1,1,STUDIED,26,1,DID NOT STUDY,51
3/29/24,8:44:42,1,65b50fa832c828a13f2aa884,1,6.6.1,1,425,full,rating,0,0,0,0,1,1,2289,243,number_66_648f3027b1306400095feddf.jpg,0,1,STUDIED,25,1,DID NOT STUDY,50
3/29/24,8:44:42,1,65b50fa832c828a13f2aa884,1,6.6.1,1,426,full,rating,0,0,0,0,1,1,1668,90,generated_photos_5e68141e6d3b380006d80065.png.jpg,0,1,STUDIED,25,1,DID NOT STUDY,50
3/29/24,8:44:42,1,65b50fa832c828a13f2aa884,1,6.6.1,1,427,full,rating,0,0,0,0,2,1,2453,236,number_52_generated_photos_5e6837e76d3b380006dfc683.jpg,0,1,STUDIED,25,1,DID NOT STUDY,50
3/29/24,8:44:42,1,65b50fa832c828a13f2aa884,1,6.6.1,1,428,full,rating,0,0,0,0,1,1,2675,112,generated_photos_5e6802006d3b380006d3dd17.png.jpg,0,1,STUDIED,25,1,DID NOT STUDY,50
3/29/24,8:44:42,1,65b50fa832c828a13f2aa884,1,6.6.1,1,429,full,rating,0,0,0,0,0,1,1629,194,generated_photos_5f8973495bec830008399c2e.jpg,0,1,STUDIED,25,1,DID NOT STUDY,50
3/29/24,8:44:42,1,65b50fa832c828a13f2aa884,1,6.6.1,1,430,full,rating,0,0,0,0,2,1,1780,275,number_157_649eb65cb13064000961f4bc.jpg,0,1,STUDIED,25,1,DID NOT STUDY,50
3/29/24,8:44:42,1,65b50fa832c828a13f2aa884,1,6.6.1,1,431,full,rating,0,0,0,0,0,1,1308,69,generated_photos_5e6835eb6d3b380006df58c1.png.jpg,1,1,STUDIED,26,1,DID NOT STUDY,51
3/29/24,8:44:42,1,65b50fa832c828a13f2aa884,1,6.6.1,1,432,full,rating,0,0,0,0,1,1,2006,135,generated_photos_5e6856636d3b380006e6a3f9.png.jpg,1,1,STUDIED,25,1,DID NOT STUDY,50
3/29/24,8:44:42,1,65b50fa832c828a13f2aa884,1,6.6.1,1,433,full,rating,0,0,0,0,2,1,5563,172,generated_photos_5f897a935bec8300083c4cff.png.jpg,0,1,STUDIED,25,1,DID NOT STUDY,50
3/29/24,8:44:42,1,65b50fa832c828a13f2aa884,1,6.6.1,1,434,full,rating,0,0,0,0,2,1,3934,221,number_35_generated_photos_5f1826421f67b0000683c67f.jpg,0,1,STUDIED,25,1,DID NOT STUDY,50
3/29/24,8:44:42,1,65b50fa832c828a13f2aa884,1,6.6.1,1,435,full,rating,0,0,0,0,1,1,2517,28,generated_photos_5e683a8c6d3b380006e05a79.png.jpg,0,1,STUDIED,25,1,DID NOT STUDY,50
3/29/24,8:44:42,1,65b50fa832c828a13f2aa884,1,6.6.1,1,436,full,rating,0,0,0,0,0,1,1275,255,number_109_generated_photos_5e680a146d3b380006d5b077.jpg,2,1,STUDIED,27,1,DID NOT STUDY,52
3/29/24,8:44:42,1,65b50fa832c828a13f2aa884,1,6.6.1,1,437,full,rating,0,0,0,0,0,1,1228,144,generated_photos_5e6867486d3b380006ea7469.png.jpg,0,1,STUDIED,25,1,DID NOT STUDY,50
3/29/24,8:44:42,1,65b50fa832c828a13f2aa884,1,6.6.1,1,438,full,rating,0,0,0,0,3,1,3061,251,number_99_generated_photos_5f896ee85bec8300083803ef_fixed.jpg,0,1,STUDIED,25,1,DID NOT STUDY,50
3/29/24,8:44:42,1,65b50fa832c828a13f2aa884,1,6.6.1,1,439,full,rating,0,0,0,0,0,1,1992,20,generated_photos_5e682c4d6d3b380006dd4223.png.jpg,0,1,STUDIED,25,1,DID NOT STUDY,50
3/29/24,8:44:42,1,65b50fa832c828a13f2aa884,1,6.6.1,1,440,full,rating,0,0,0,0,0,1,1909,98,generated_photos_5e68518f6d3b380006e58c0b.png.jpg,0,1,STUDIED,25,1,DID NOT STUDY,50
3/29/24,8:44:42,1,65b50fa832c828a13f2aa884,1,6.6.1,1,441,full,rating,0,0,0,0,1,1,1675,95,generated_photos_5e68306f6d3b380006de27f1.png.jpg,0,1,STUDIED,25,1,DID NOT STUDY,50
3/29/24,8:44:42,1,65b50fa832c828a13f2aa884,1,6.6.1,1,442,full,rating,0,0,0,0,2,1,2150,42,generated_photos_5e687af76d3b380006eeea11.png.jpg,0,1,STUDIED,25,1,DID NOT STUDY,50
3/29/24,8:44:42,1,65b50fa832c828a13f2aa884,1,6.6.1,1,443,full,rating,0,0,0,0,3,1,2433,64,generated_photos_5e6823a96d3b380006db6be7.png.jpg,0,1,STUDIED,25,1,DID NOT STUDY,50
3/29/24,8:44:42,1,65b50fa832c828a13f2aa884,1,6.6.1,1,444,full,rating,0,0,0,0,0,1,1685,274,number_156_generated_photos_5f8973c45bec83000839c865.jpg,0,1,STUDIED,25,1,DID NOT STUDY,50
3/29/24,8:44:42,1,65b50fa832c828a13f2aa884,1,6.6.1,1,445,full,rating,0,0,0,0,3,1,2412,318,number_230_generated_photos_5e6805336d3b380006d497cf_fixed.jpg,0,1,STUDIED,25,1,DID NOT STUDY,50
3/29/24,8:44:42,1,65b50fa832c828a13f2aa884,1,6.6.1,1,446,full,rating,0,0,0,0,0,1,1619,84,generated_photos_5e6883e26d3b380006f0f72b.png.jpg,0,1,STUDIED,25,1,DID NOT STUDY,50
3/29/24,8:44:42,1,65b50fa832c828a13f2aa884,1,6.6.1,1,447,full,rating,0,0,0,0,2,1,1677,328,number_248_generated_photos_5e6852e96d3b380006e5d965_2.jpg,0,1,STUDIED,25,1,DID NOT STUDY,50
3/29/24,8:44:42,1,65b50fa832c828a13f2aa884,1,6.6.1,1,448,full,rating,0,0,0,0,3,1,1856,320,number_232_generated_photos_5e680be16d3b380006d61a23.jpg,0,1,STUDIED,25,1,DID NOT STUDY,50
3/29/24,8:44:42,1,65b50fa832c828a13f2aa884,1,6.6.1,1,449,full,rating,0,0,0,0,0,1,1001,195,generated_photos_5f8974015bec83000839de25.png.jpg,0,1,STUDIED,25,1,DID NOT STUDY,50
3/29/24,8:44:42,1,65b50fa832c828a13f2aa884,1,6.6.1,1,450,full,rating,0,0,0,0,2,1,2179,222,number_37_generated_photos_5f182eb21f67b00006864a45.jpg,0,1,STUDIED,25,1,DID NOT STUDY,50
3/29/24,8:44:42,1,65b50fa832c828a13f2aa884,1,6.6.1,1,451,full,rating,0,0,0,0,2,1,1671,1,14_W_M_027.jpg,0,1,STUDIED,25,1,DID NOT STUDY,50
3/29/24,8:44:42,1,65b50fa832c828a13f2aa884,1,6.6.1,1,452,full,rating,0,0,0,0,0,1,1184,269,number_146_649e5d10b1306400076146f6.jpg,0,1,STUDIED,25,1,DID NOT STUDY,50
3/29/24,8:44:42,1,65b50fa832c828a13f2aa884,1,6.6.1,1,453,full,rating,0,0,0,0,0,1,964,123,generated_photos_5e6830796d3b380006de2a4b.png.jpg,0,1,STUDIED,25,1,DID NOT STUDY,50
3/29/24,8:44:42,1,65b50fa832c828a13f2aa884,1,6.6.1,1,454,full,rating,0,0,0,0,2,1,2284,49,generated_photos_5e6803be6d3b380006d4449f.png.jpg,0,1,STUDIED,25,1,DID NOT STUDY,50
3/29/24,8:44:42,1,65b50fa832c828a13f2aa884,1,6.6.1,1,455,full,rating,0,0,0,0,3,1,2226,334,number_261_generated_photos_5e686dcb6d3b380006ebeed3_fixed.jpg,0,1,STUDIED,25,1,DID NOT STUDY,50
3/29/24,8:44:42,1,65b50fa832c828a13f2aa884,1,6.6.1,1,456,full,rating,0,0,0,0,0,1,1622,4,generated_photos_5e680a5b6d3b380006d5c0a5.png.jpg,0,1,STUDIED,25,1,DID NOT STUDY,50
3/29/24,8:44:42,1,65b50fa832c828a13f2aa884,1,6.6.1,1,457,full,rating,0,0,0,0,1,1,1526,179,generated_photos_5f1818e21f67b000067fb5db.png.jpg,0,1,STUDIED,25,1,DID NOT STUDY,50
3/29/24,8:44:42,1,65b50fa832c828a13f2aa884,1,6.6.1,1,458,full,rating,0,0,0,0,2,1,1390,306,number_201_generated_photos_5f1811ff1f67b000067d69bf.jpg_fixed.jpg,0,1,STUDIED,25,1,DID NOT STUDY,50
3/29/24,8:44:42,1,65b50fa832c828a13f2aa884,1,6.6.1,1,459,full,rating,0,0,0,0,2,1,1898,260,number_118_generated_photos_5e6818b56d3b380006d9110d_fixed1.jpg,0,1,STUDIED,25,1,DID NOT STUDY,50
3/29/24,8:44:42,1,65b50fa832c828a13f2aa884,1,6.6.1,1,460,full,rating,0,0,0,0,2,1,2803,204,number_11_generated_photos_5f8970e05bec83000838bd80.jpg,1,1,STUDIED,26,1,DID NOT STUDY,50
3/29/24,8:44:42,1,65b50fa832c828a13f2aa884,1,6.6.1,1,461,full,rating,0,0,0,0,1,1,2104,155,generated_photos_5f181a6f1f67b000068032ce.png.jpg,0,1,STUDIED,25,1,DID NOT STUDY,50
3/29/24,8:44:42,1,65b50fa832c828a13f2aa884,1,6.6.1,1,462,full,rating,0,0,0,0,1,1,1434,233,number_48_generated_photos_5e6831df6d3b380006de792b.jpg,0,1,STUDIED,25,1,DID NOT STUDY,50
3/29/24,8:44:42,1,65b50fa832c828a13f2aa884,1,6.6.1,1,463,full,rating,0,0,0,0,3,1,2829,326,number_246_generated_photos_5e6847d46d3b380006e357af_2_2222.jpg,0,1,STUDIED,25,1,DID NOT STUDY,50
3/29/24,8:44:42,1,65b50fa832c828a13f2aa884,1,6.6.1,1,464,full,rating,0,0,0,0,1,1,1762,126,generated_photos_5e6843016d3b380006e241c9.png.jpg,1,1,STUDIED,25,1,DID NOT STUDY,50
3/29/24,8:44:42,1,65b50fa832c828a13f2aa884,1,6.6.1,1,465,full,rating,0,0,0,0,1,1,1819,282,number_167_649efcdbb130640007615ec3.jpg,0,1,STUDIED,25,1,DID NOT STUDY,50
3/29/24,8:44:42,1,65b50fa832c828a13f2aa884,1,6.6.1,1,466,full,rating,0,0,0,0,3,1,2026,330,number_253_generated_photos_5e68581c6d3b380006e7080b_fixed.jpg,0,1,STUDIED,25,1,DID NOT STUDY,50
3/29/24,8:44:42,1,65b50fa832c828a13f2aa884,1,6.6.1,1,467,full,rating,0,0,0,0,2,1,2492,151,generated_photos_5e6881716d3b380006f0695f.png.jpg,0,1,STUDIED,25,1,DID NOT STUDY,50
3/29/24,8:44:42,1,65b50fa832c828a13f2aa884,1,6.6.1,1,468,full,rating,0,0,0,0,3,1,3248,153,generated_photos_5e6889036d3b380006f222fd.png.jpg,0,1,STUDIED,25,1,DID NOT STUDY,50
3/29/24,8:44:42,1,65b50fa832c828a13f2aa884,1,6.6.1,1,469,full,rating,0,0,0,0,1,1,1594,223,number_38_generated_photos_5f1813f01f67b000067e14cc.jpg,0,1,STUDIED,25,1,DID NOT STUDY,50
3/29/24,8:44:42,1,65b50fa832c828a13f2aa884,1,6.6.1,1,470,full,rating,0,0,0,0,1,1,3452,245,number_83_generated_photos_5e686dbc6d3b380006ebeb6f_fixed.jpg,0,1,STUDIED,25,1,DID NOT STUDY,50
3/29/24,8:44:42,1,65b50fa832c828a13f2aa884,1,6.6.1,1,471,full,rating,0,0,0,0,2,1,2915,279,number_163_generated_photos_5f1826d11f67b0000683f2aa.jpg,0,1,STUDIED,25,1,DID NOT STUDY,50
3/29/24,8:44:42,1,65b50fa832c828a13f2aa884,1,6.6.1,1,472,full,rating,0,0,0,0,2,1,1798,234,number_49_generated_photos_5e683d3c6d3b380006e0f421.jpg,0,1,STUDIED,25,1,DID NOT STUDY,50
3/29/24,8:44:42,1,65b50fa832c828a13f2aa884,1,6.6.1,1,473,full,rating,0,0,0,0,1,1,1540,56,generated_photos_5e6810f36d3b380006d746ab.png.jpg,0,1,STUDIED,25,1,DID NOT STUDY,50
3/29/24,8:44:42,1,65b50fa832c828a13f2aa884,1,6.6.1,1,474,full,rating,0,0,0,0,1,1,1404,283,number_168_generated_photos_5e68126e6d3b380006d79dc5.jpg,0,1,STUDIED,25,1,DID NOT STUDY,50
3/29/24,8:44:42,1,65b50fa832c828a13f2aa884,1,6.6.1,1,475,full,rating,0,0,0,0,3,1,1778,311,number_220_generated_photos_5e68148e6d3b380006d81a7b.jpg,0,1,STUDIED,25,1,DID NOT STUDY,50
3/29/24,8:44:42,1,65b50fa832c828a13f2aa884,1,6.6.1,1,476,full,rating,0,0,0,0,1,1,2687,176,generated_photos_5f897d185bec8300083d3a20.png.jpg,0,1,STUDIED,25,1,DID NOT STUDY,50
3/29/24,8:44:42,1,65b50fa832c828a13f2aa884,1,6.6.1,1,477,full,rating,0,0,0,0,2,1,6945,180,generated_photos_5f1823d71f67b00006830ae1.png.jpg,0,1,STUDIED,25,1,DID NOT STUDY,50
3/29/24,8:44:42,1,65b50fa832c828a13f2aa884,1,6.6.1,1,478,full,rating,0,0,0,0,0,1,968,132,generated_photos_5e6856006d3b380006e68ced.png.jpg,0,1,STUDIED,25,1,DID NOT STUDY,50
3/29/24,8:44:42,1,65b50fa832c828a13f2aa884,1,6.6.1,1,479,full,rating,0,0,0,0,3,1,2388,319,number_231_generated_photos_5f8982895bec8300083f1f87.jpg_fixed.jpg,0,1,STUDIED,25,1,DID NOT STUDY,50
3/29/24,8:44:42,1,65b50fa832c828a13f2aa884,1,6.6.1,1,480,full,rating,0,0,0,0,2,1,2014,228,number_43_generated_photos_5e68677a6d3b380006ea7fad.jpg,0,1,STUDIED,25,1,DID NOT STUDY,50
3/29/24,8:44:42,1,65b50fa832c828a13f2aa884,1,6.6.1,1,481,full,rating,0,0,0,0,0,1,1502,66,generated_photos_5e6828a66d3b380006dc8071.png.jpg,1,1,STUDIED,26,1,DID NOT STUDY,51
3/29/24,8:44:42,1,65b50fa832c828a13f2aa884,1,6.6.1,1,482,full,rating,0,0,0,0,1,1,1552,67,generated_photos_5e6832ad6d3b380006dea597.png.jpg,0,1,STUDIED,25,1,DID NOT STUDY,50
3/29/24,8:44:42,1,65b50fa832c828a13f2aa884,1,6.6.1,1,483,full,rating,0,0,0,0,0,1,1909,247,number_92_generated_photos_5e6866a46d3b380006ea4e27.jpg,0,1,STUDIED,25,1,DID NOT STUDY,50
3/29/24,8:44:42,1,65b50fa832c828a13f2aa884,1,6.6.1,1,484,full,rating,0,0,0,0,2,1,1530,85,generated_photos_5e6883ec6d3b380006f0f975.png.jpg,0,1,STUDIED,25,1,DID NOT STUDY,50
3/29/24,8:44:42,1,65b50fa832c828a13f2aa884,1,6.6.1,1,485,full,rating,0,0,0,0,2,1,1392,214,number_25_generated_photos_5f181a5d1f67b00006802e0c.jpg,0,1,STUDIED,25,1,DID NOT STUDY,50
3/29/24,8:44:42,1,65b50fa832c828a13f2aa884,1,6.6.1,1,486,full,rating,0,0,0,0,3,1,1965,248,number_95_15_B_F_004.jpg,0,1,STUDIED,25,1,DID NOT STUDY,50
3/29/24,8:44:42,1,65b50fa832c828a13f2aa884,1,6.6.1,1,487,full,rating,0,0,0,0,2,1,1790,175,generated_photos_5f897c615bec8300083cfa15.png.jpg,0,1,STUDIED,25,1,DID NOT STUDY,50
3/29/24,8:44:42,1,65b50fa832c828a13f2aa884,1,6.6.1,1,488,full,rating,0,0,0,0,2,1,1954,258,number_114_generated_photos_5e687cb16d3b380006ef5173.jpg,0,1,STUDIED,25,1,DID NOT STUDY,50
3/29/24,8:44:42,1,65b50fa832c828a13f2aa884,1,6.6.1,1,489,full,rating,0,0,0,0,1,1,2289,125,generated_photos_5e6832796d3b380006de9a61.png.jpg,0,1,STUDIED,25,1,DID NOT STUDY,50
3/29/24,8:44:42,1,65b50fa832c828a13f2aa884,1,6.6.1,1,490,full,rating,0,0,0,0,1,1,2059,7,generated_photos_5e680c7b6d3b380006d63dc5.png.jpg,0,1,STUDIED,25,1,DID NOT STUDY,50
3/29/24,8:44:42,1,65b50fa832c828a13f2aa884,1,6.6.1,1,491,full,rating,0,0,0,0,0,1,951,86,generated_photos_5e6886ab6d3b380006f19a21.png.jpg,1,1,STUDIED,26,1,DID NOT STUDY,52
3/29/24,8:44:42,1,65b50fa832c828a13f2aa884,1,6.6.1,1,492,full,rating,0,0,0,0,2,1,2471,117,generated_photos_5e6822586d3b380006db21ff.png.jpg,0,1,STUDIED,25,1,DID NOT STUDY,50
3/29/24,8:44:42,1,65b50fa832c828a13f2aa884,1,6.6.1,1,493,full,rating,0,0,0,0,2,1,1688,148,generated_photos_5e6877866d3b380006ee1d49.png.jpg,0,1,STUDIED,25,1,DID NOT STUDY,50
3/29/24,8:44:42,1,65b50fa832c828a13f2aa884,1,6.6.1,1,494,full,rating,0,0,0,0,2,1,2144,14,generated_photos_5e681bdd6d3b380006d9bb41.png.jpg,0,1,STUDIED,25,1,DID NOT STUDY,50
3/29/24,8:44:42,1,65b50fa832c828a13f2aa884,1,6.6.1,1,495,full,rating,0,0,0,0,1,1,1918,127,generated_photos_5e6845276d3b380006e2be8f.png.jpg,0,1,STUDIED,25,1,DID NOT STUDY,50
3/29/24,8:44:42,1,65b50fa832c828a13f2aa884,1,6.6.1,1,496,full,rating,0,0,0,0,3,1,2753,3,17_W_M_023.jpg,0,1,STUDIED,25,1,DID NOT STUDY,50
3/29/24,8:44:42,1,65b50fa832c828a13f2aa884,1,6.6.1,1,497,full,rating,0,0,0,0,2,1,1401,215,number_26_generated_photos_5e681cd86d3b380006d9f0c9.jpg,0,1,STUDIED,25,1,DID NOT STUDY,50
3/29/24,8:44:42,1,65b50fa832c828a13f2aa884,1,6.6.1,1,498,full,rating,0,0,0,0,2,1,2433,209,number_20_generated_photos_5f896f505bec830008382a98.jpg,0,1,STUDIED,25,1,DID NOT STUDY,50
3/29/24,8:44:42,1,65b50fa832c828a13f2aa884,1,6.6.1,1,499,full,rating,0,0,0,0,3,1,3061,333,number_260_generated_photos_5e68129b6d3b380006d7a7ff.jpg_fixed.jpg,0,1,STUDIED,25,1,DID NOT STUDY,50
3/29/24,8:44:42,1,65b50fa832c828a13f2aa884,1,6.6.1,1,500,full,rating,0,0,0,0,3,1,2352,342,number_278_generated_photos_5e6888936d3b380006f209eb.jpg,0,1,STUDIED,25,1,DID NOT STUDY,50
3/29/24,8:44:42,1,65b50fa832c828a13f2aa884,1,6.6.1,1,501,full,rating,0,0,0,0,1,1,3040,71,generated_photos_5e6845e36d3b380006e2e8cb.png.jpg,1,1,STUDIED,26,1,DID NOT STUDY,52
3/29/24,8:44:42,1,65b50fa832c828a13f2aa884,1,6.6.1,1,502,full,rating,0,0,0,0,1,1,1512,78,generated_photos_5e6865cf6d3b380006ea1bbd.png.jpg,0,1,STUDIED,25,1,DID NOT STUDY,50
3/29/24,8:44:42,1,65b50fa832c828a13f2aa884,1,6.6.1,1,503,full,rating,0,0,0,0,2,1,1670,324,number_243_generated_photos_5e685af96d3b380006e7abc12.jpg,0,1,STUDIED,25,1,DID NOT STUDY,50
3/29/24,8:44:42,1,65b50fa832c828a13f2aa884,1,6.6.1,1,504,full,rating,0,0,0,0,0,1,1754,114,generated_photos_5e6805206d3b380006d493a7.png.jpg,0,1,STUDIED,25,1,DID NOT STUDY,50
3/29/24,8:44:42,1,65b50fa832c828a13f2aa884,1,6.6.1,1,505,full,rating,0,0,0,0,2,1,3237,100,generated_photos_5e68559e6d3b380006e676b1.png.jpg,0,1,STUDIED,25,1,DID NOT STUDY,50
3/29/24,8:44:42,1,65b50fa832c828a13f2aa884,1,6.6.1,1,506,full,rating,0,0,0,0,1,1,1957,165,generated_photos_5f182fde1f67b00006869e63.png.jpg,0,1,STUDIED,25,1,DID NOT STUDY,50
3/29/24,8:44:42,1,65b50fa832c828a13f2aa884,1,6.6.1,1,507,full,rating,0,0,0,0,1,1,2502,133,generated_photos_5e6856466d3b380006e69d3f.png.jpg,0,1,STUDIED,25,1,DID NOT STUDY,50
3/29/24,8:44:42,1,65b50fa832c828a13f2aa884,1,6.6.1,1,508,full,rating,0,0,0,0,2,1,9359,193,generated_photos_5f8971195bec83000838d307.png.jpg,0,1,STUDIED,25,1,DID NOT STUDY,50
3/29/24,8:44:42,1,65b50fa832c828a13f2aa884,1,6.6.1,1,509,full,rating,0,0,0,0,2,1,1438,188,generated_photos_5f18265a1f67b0000683ce6b.png.jpg,0,1,STUDIED,25,1,DID NOT STUDY,50
3/29/24,8:44:42,1,65b50fa832c828a13f2aa884,1,6.6.1,1,510,full,rating,0,0,0,0,1,1,1238,149,generated_photos_5e6878626d3b380006ee5087.png.jpg,0,1,STUDIED,25,1,DID NOT STUDY,50
3/29/24,8:44:42,1,65b50fa832c828a13f2aa884,1,6.6.1,1,511,full,rating,0,0,0,0,1,1,1371,239,number_61_648f1a10b1306400075f5f44.jpg,1,1,STUDIED,26,1,DID NOT STUDY,51
3/29/24,8:44:42,1,65b50fa832c828a13f2aa884,1,6.6.1,1,512,full,rating,0,0,0,0,1,1,1330,278,number_161_649ee1d1b13064000d61d3ae.jpg,1,1,STUDIED,27,1,DID NOT STUDY,54
3/29/24,8:44:42,1,65b50fa832c828a13f2aa884,1,6.6.1,1,513,full,rating,0,0,0,0,2,1,1587,212,number_23_generated_photos_5f8974c05bec8300083a230a.jpg,0,1,STUDIED,25,1,DID NOT STUDY,50
3/29/24,8:44:42,1,65b50fa832c828a13f2aa884,1,6.6.1,1,514,full,rating,0,0,0,0,2,1,2515,262,number_127_generated_photos_5e6883c36d3b380006f0f045.jpg_fixed.jpg,0,1,STUDIED,25,1,DID NOT STUDY,50
3/29/24,9:00:15,1,656e539f3c52ceb9b1d6d3f8,1,6.6.1,1,1,full,instructions,0,0,0,0,continue,0,5685,1,"In this task, you will be shown a series of faces.   Press the 'f' key if it DOES look like a 9-12 year old, or the 'j' key if it does NOT look like a 9-12 year old.   Press the Continue button to begin.",-16,1,,-16,0,0,0
3/29/24,9:00:15,1,656e539f3c52ceb9b1d6d3f8,1,6.6.1,1,2,full,encoding,0,0,0,0,36,0,5992,180,generated_photos_5f1823d71f67b00006830ae1.png.jpg,0,1,press 'f' (is a 9-12 year old) or 'j' ( is NOT a 9-12 year old),16,0,0,0
3/29/24,9:00:15,1,656e539f3c52ceb9b1d6d3f8,1,6.6.1,1,3,full,encoding,0,0,0,0,33,0,808,237,number_53_648f0fd6b1306400095fea5e.jpg,0,1,press 'f' (is a 9-12 year old) or 'j' ( is NOT a 9-12 year old),16,0,0,0
3/29/24,9:00:15,1,656e539f3c52ceb9b1d6d3f8,1,6.6.1,1,4,full,encoding,0,0,0,0,33,0,1043,137,generated_photos_5e6858776d3b380006e71c8b.png.jpg,0,1,press 'f' (is a 9-12 year old) or 'j' ( is NOT a 9-12 year old),16,0,0,0
