onset	duration	trial_type	rt	resp	selection	gender	image_left	image_right	image_left_type	image_right_type
0.0	1.0	ITI	n/a	n/a	n/a	n/a	n/a	n/a	n/a	n/a
1.0273215998895466	2.50117120007053	decision_monetary_loss	1.4850389999337494	3	left	D	DD015.jpg	DD016.jpg	blue	brown
3.5287254001013935	0.508028700016439	ISI	n/a	n/a	n/a	D	DD015.jpg	DD016.jpg	blue	brown
4.036828900221735	1.0006840997375548	feedback_monetary_loss_neutral	n/a	n/a	n/a	D	DD015.jpg	DD016.jpg	blue	brown
5.037674500141293	1.0006475998088717	ITI	n/a	n/a	n/a	D	DD015.jpg	DD016.jpg	blue	brown
6.049449600279331	2.5026828995905817	decision_monetary_win	1.653147999662906	8	right	S	SD023.jpg	SD024.jpg	blue	blue
8.552379900123924	1.0056162998080254	ISI	n/a	n/a	n/a	S	SD023.jpg	SD024.jpg	blue	blue
9.558077199850231	1.0006604003719985	feedback_monetary_win_neutral	n/a	n/a	n/a	S	SD023.jpg	SD024.jpg	blue	blue
10.558908100239933	3.0036224997602403	ITI	n/a	n/a	n/a	S	SD023.jpg	SD024.jpg	blue	blue
13.57733860006556	2.5012269001454115	decision_monetary_win	1.5957031999714673	3	left	D	DD041.jpg	DD042.jpg	brown	brown
16.078750899992883	2.002884699963033	ISI	n/a	n/a	n/a	D	DD041.jpg	DD042.jpg	brown	brown
18.081709899939597	1.000625400338322	feedback_monetary_win_positive	n/a	n/a	n/a	D	DD041.jpg	DD042.jpg	brown	brown
19.082540300209075	4.002882800064981	ITI	n/a	n/a	n/a	D	DD041.jpg	DD042.jpg	brown	brown
23.096699600107968	2.5024095997214317	decision_monetary_win	1.7020576000213623	8	right	D	DD031.jpg	DD032.jpg	pink	red
25.599315200001	1.5065386998467147	ISI	n/a	n/a	n/a	D	DD031.jpg	DD032.jpg	pink	red
27.105927200056612	1.0010023000650108	feedback_monetary_win_positive	n/a	n/a	n/a	D	DD031.jpg	DD032.jpg	pink	red
28.107133500277996	3.001570599619299	ITI	n/a	n/a	n/a	D	DD031.jpg	DD032.jpg	pink	red
31.120611799880862	2.501612600404769	decision_monetary_win	1.566420300398022	3	left	D	DD039.jpg	DD040.jpg	white	black
33.62243429990485	2.0069945002906024	ISI	n/a	n/a	n/a	D	DD039.jpg	DD040.jpg	white	black
35.62950470019132	1.0007209996692836	feedback_monetary_win_positive	n/a	n/a	n/a	D	DD039.jpg	DD040.jpg	white	black
36.63038740027696	4.0031653996557	ITI	n/a	n/a	n/a	D	DD039.jpg	DD040.jpg	white	black
40.64480399992317	2.5024888003244996	decision_monetary_loss	1.8009227002039552	8	right	S	SD011.jpg	SD012.jpg	blue	brown
43.14753139996901	0.5051747001707554	ISI	n/a	n/a	n/a	S	SD011.jpg	SD012.jpg	blue	brown
43.65278480015695	1.00069270003587	feedback_monetary_loss_negative	n/a	n/a	n/a	S	SD011.jpg	SD012.jpg	blue	brown
44.65364070003852	2.0014829002320766	ITI	n/a	n/a	n/a	S	SD011.jpg	SD012.jpg	blue	brown
46.666201800107956	2.5008013998158276	decision_monetary_loss	1.4346960997208953	3	left	S	SD001.jpg	SD002.jpg	green	purple
49.16737860022113	2.0081865997053683	ISI	n/a	n/a	n/a	S	SD001.jpg	SD002.jpg	green	purple
51.175640100147575	1.0007205000147223	feedback_monetary_loss_negative	n/a	n/a	n/a	S	SD001.jpg	SD002.jpg	green	purple
52.17652630014345	3.0023288996890187	ITI	n/a	n/a	n/a	S	SD001.jpg	SD002.jpg	green	purple
55.18987110024318	2.5025374996475875	decision_monetary_loss	1.6504819998517632	3	left	D	DD017.jpg	DD018.jpg	red	brown
57.692653300240636	0.5059448997490108	ISI	n/a	n/a	n/a	D	DD017.jpg	DD018.jpg	red	brown
58.198708900250494	1.01678519975394	feedback_monetary_loss_neutral	n/a	n/a	n/a	D	DD017.jpg	DD018.jpg	red	brown
59.21566220000386	2.001734800171107	ITI	n/a	n/a	n/a	D	DD017.jpg	DD018.jpg	red	brown
61.22844179999083	2.5013080001808703	decision_monetary_win	1.5512640001252294	8	right	D	DD035.jpg	DD036.jpg	brown	brown
63.729938299860805	2.0076210000552237	ISI	n/a	n/a	n/a	D	DD035.jpg	DD036.jpg	brown	brown
65.73765419982374	1.0007035001181066	feedback_monetary_win_positive	n/a	n/a	n/a	D	DD035.jpg	DD036.jpg	brown	brown
66.73856300022453	5.0040255999192595	ITI	n/a	n/a	n/a	D	DD035.jpg	DD036.jpg	brown	brown
71.7538443999365	2.500890899915248	decision_monetary_win	1.551592200063169	8	right	D	DD029.jpg	DD030.jpg	brown	brown
74.25491910008714	0.5067834001965821	ISI	n/a	n/a	n/a	D	DD029.jpg	DD030.jpg	brown	brown
74.76177569990978	1.0006921999156475	feedback_monetary_win_positive	n/a	n/a	n/a	D	DD029.jpg	DD030.jpg	brown	brown
75.76267499988899	1.0002913000062108	ITI	n/a	n/a	n/a	D	DD029.jpg	DD030.jpg	brown	brown
76.77415010007098	2.5021907999180257	decision_monetary_loss	2.334578299894929	8	right	S	SD015.jpg	SD016.jpg	yellow	brown
79.2765410002321	0.5058418996632099	ISI	n/a	n/a	n/a	S	SD015.jpg	SD016.jpg	yellow	brown
79.78247509989887	1.0007692002691329	feedback_monetary_loss_neutral	n/a	n/a	n/a	S	SD015.jpg	SD016.jpg	yellow	brown
80.78343150019646	1.0012376997619867	ITI	n/a	n/a	n/a	S	SD015.jpg	SD016.jpg	yellow	brown
81.7958651999943	2.501613900065422	decision_monetary_win	1.3665835000574589	3	left	S	SD041.jpg	SD042.jpg	brown	purple
84.29768369998783	0.5055888001807034	ISI	n/a	n/a	n/a	S	SD041.jpg	SD042.jpg	brown	purple
84.80334640014917	1.000847099814564	feedback_monetary_win_positive	n/a	n/a	n/a	S	SD041.jpg	SD042.jpg	brown	purple
85.80436660023406	3.0022266996093094	ITI	n/a	n/a	n/a	S	SD041.jpg	SD042.jpg	brown	purple
88.8180881999433	2.501659800298512	decision_monetary_loss	2.066955900285393	8	right	S	SD019.jpg	SD020.jpg	brown	green
91.31995309982449	1.0062058004550636	ISI	n/a	n/a	n/a	S	SD019.jpg	SD020.jpg	brown	green
92.32627670001239	1.0006698998622596	feedback_monetary_loss_neutral	n/a	n/a	n/a	S	SD019.jpg	SD020.jpg	brown	green
93.32710220012814	1.0009002001024783	ITI	n/a	n/a	n/a	S	SD019.jpg	SD020.jpg	brown	green
94.33972920011729	2.501751999836415	decision_monetary_win	1.833090600091964	8	right	D	DD023.jpg	DD024.jpg	blue	white
96.84170910017565	2.0064995996654034	ISI	n/a	n/a	n/a	D	DD023.jpg	DD024.jpg	blue	white
98.84828149992973	1.0006818999536335	feedback_monetary_win_neutral	n/a	n/a	n/a	D	DD023.jpg	DD024.jpg	blue	white
99.84912429982796	2.0017387000843883	ITI	n/a	n/a	n/a	D	DD023.jpg	DD024.jpg	blue	white
101.86293620010838	2.5014472999610007	decision_monetary_win	1.4005259997211397	3	left	S	SD021.jpg	SD022.jpg	blue	red
104.36459890007973	0.5053024999797344	ISI	n/a	n/a	n/a	S	SD021.jpg	SD022.jpg	blue	red
104.86997949983925	1.0004860004410148	feedback_monetary_win_neutral	n/a	n/a	n/a	S	SD021.jpg	SD022.jpg	blue	red
105.87071559997275	3.0025070002302527	ITI	n/a	n/a	n/a	S	SD021.jpg	SD022.jpg	blue	red
108.88611430022866	2.5010799998417497	decision_monetary_loss	1.8157046996057034	3	left	D	DD009.jpg	DD010.jpg	white	green
111.38754389993846	0.5048068999312818	ISI	n/a	n/a	n/a	D	DD009.jpg	DD010.jpg	white	green
111.89242180017754	1.0005271998234093	feedback_monetary_loss_negative	n/a	n/a	n/a	D	DD009.jpg	DD010.jpg	white	green
112.89315589983016	1.0012591001577675	ITI	n/a	n/a	n/a	D	DD009.jpg	DD010.jpg	white	green
113.91171710006893	2.528358200099319	decision_monetary_loss	2.527803100179881	3	left	D	DD019.jpg	DD020.jpg	blue	brown
116.44025240000337	1.0067214998416603	ISI	n/a	n/a	n/a	D	DD019.jpg	DD020.jpg	blue	brown
117.44709239993244	1.0005279001779854	feedback_monetary_loss_neutral	n/a	n/a	n/a	D	DD019.jpg	DD020.jpg	blue	brown
118.44777940027416	1.0006736000068486	ITI	n/a	n/a	n/a	D	DD019.jpg	DD020.jpg	blue	brown
119.4627192998305	2.500730300322175	decision_monetary_win	1.9489683001302183	8	right	S	SD039.jpg	SD040.jpg	blue	brown
121.96363350003958	1.505014699883759	ISI	n/a	n/a	n/a	S	SD039.jpg	SD040.jpg	blue	brown
123.4687307998538	1.000399800017476	feedback_monetary_win_positive	n/a	n/a	n/a	S	SD039.jpg	SD040.jpg	blue	brown
124.46932859998196	1.0015068002976477	ITI	n/a	n/a	n/a	S	SD039.jpg	SD040.jpg	blue	brown
125.48355610016733	2.50208709994331	decision_monetary_win	1.9664909997954965	8	right	D	DD027.jpg	DD028.jpg	blue	red
127.98582800012082	0.5034762001596391	ISI	n/a	n/a	n/a	D	DD027.jpg	DD028.jpg	blue	red
128.48939929995686	1.000698400195688	feedback_monetary_win_neutral	n/a	n/a	n/a	D	DD027.jpg	DD028.jpg	blue	red
129.49025790020823	3.0024075000546873	ITI	n/a	n/a	n/a	D	DD027.jpg	DD028.jpg	blue	red
132.50408439990133	2.501702200155705	decision_monetary_loss	1.7168478001840413	3	left	D	DD003.jpg	DD004.jpg	green	blue
135.00599410012364	2.007170899771154	ISI	n/a	n/a	n/a	D	DD003.jpg	DD004.jpg	green	blue
137.0132547998801	1.000413200352341	feedback_monetary_loss_negative	n/a	n/a	n/a	D	DD003.jpg	DD004.jpg	green	blue
138.01383370021358	3.0020852996967733	ITI	n/a	n/a	n/a	D	DD003.jpg	DD004.jpg	green	blue
141.0283286999911	2.5016021002084017	decision_monetary_win	1.6000132001936436	3	left	D	DD037.jpg	DD038.jpg	brown	brown
143.53014610009268	0.5053225997835398	ISI	n/a	n/a	n/a	D	DD037.jpg	DD038.jpg	brown	brown
144.0355406999588	1.0006550000980496	feedback_monetary_win_positive	n/a	n/a	n/a	D	DD037.jpg	DD038.jpg	brown	brown
145.03636380005628	1.0007750000804663	ITI	n/a	n/a	n/a	D	DD037.jpg	DD038.jpg	brown	brown
146.04896129993722	2.5012787003070116	decision_monetary_win	2.0510153002105653	8	right	S	SD031.jpg	SD032.jpg	red	purple
148.55047400016338	1.0061164000071585	ISI	n/a	n/a	n/a	S	SD031.jpg	SD032.jpg	red	purple
149.55667369998991	1.000833900179714	feedback_monetary_win_positive	n/a	n/a	n/a	S	SD031.jpg	SD032.jpg	red	purple
150.5576857002452	5.004658799618483	ITI	n/a	n/a	n/a	S	SD031.jpg	SD032.jpg	red	purple
155.57679300010204	2.5024395999498665	decision_monetary_loss	1.6464586001820862	3	left	D	DD005.jpg	DD006.jpg	brown	brown
158.07943020015955	0.5013246000744402	ISI	n/a	n/a	n/a	D	DD005.jpg	DD006.jpg	brown	brown
158.5808347002603	1.000719300005585	feedback_monetary_loss_negative	n/a	n/a	n/a	D	DD005.jpg	DD006.jpg	brown	brown
159.58171610021964	3.00228129979223	ITI	n/a	n/a	n/a	D	DD005.jpg	DD006.jpg	brown	brown
162.5957503002137	2.501026699785143	decision_monetary_loss	1.4333048998378217	8	right	S	SD009.jpg	SD010.jpg	blue	yellow
165.0969624002464	0.5062959999777377	ISI	n/a	n/a	n/a	S	SD009.jpg	SD010.jpg	blue	yellow
165.60333879990503	1.0013903002254665	feedback_monetary_loss_negative	n/a	n/a	n/a	S	SD009.jpg	SD010.jpg	blue	yellow
166.60497680027038	1.0163530996069312	ITI	n/a	n/a	n/a	S	SD009.jpg	SD010.jpg	blue	yellow
167.63336679991335	2.5012385002337396	decision_monetary_loss	1.399597099982202	3	left	S	SD017.jpg	SD018.jpg	blue	green
170.13501700013876	2.0066018998622894	ISI	n/a	n/a	n/a	S	SD017.jpg	SD018.jpg	blue	green
172.14169250009581	1.000980599783361	feedback_monetary_loss_neutral	n/a	n/a	n/a	S	SD017.jpg	SD018.jpg	blue	green
173.14282940002158	1.0010779998265207	ITI	n/a	n/a	n/a	S	SD017.jpg	SD018.jpg	blue	green
174.16122990008444	2.500776399858296	decision_monetary_loss_MISSED	missed	missed	missed	D	DD001.jpg	DD002.jpg	blue	brown
176.66217730008066	0.5008009998127818	ISI	n/a	n/a	n/a	D	DD001.jpg	DD002.jpg	blue	brown
177.1630608998239	1.0001351004466414	feedback_monetary_loss_MISSED	n/a	n/a	n/a	D	DD001.jpg	DD002.jpg	blue	brown
178.16335930023342	2.0018597999587655	ITI	n/a	n/a	n/a	D	DD001.jpg	DD002.jpg	blue	brown
180.17772680008784	2.5019279001280665	decision_monetary_win	1.3658771999180317	8	right	D	DD033.jpg	DD034.jpg	red	purple
182.67984030023217	0.504525899887085	ISI	n/a	n/a	n/a	D	DD033.jpg	DD034.jpg	red	purple
183.18444410013035	1.0006694998592138	feedback_monetary_win_positive	n/a	n/a	n/a	D	DD033.jpg	DD034.jpg	red	purple
184.18527529994026	1.0008856002241373	ITI	n/a	n/a	n/a	D	DD033.jpg	DD034.jpg	red	purple
185.20075639989227	2.501088500022888	decision_monetary_loss	1.6134844003245234	8	right	S	SD013.jpg	SD014.jpg	blue	black
187.70202880026773	2.004323699977249	ISI	n/a	n/a	n/a	S	SD013.jpg	SD014.jpg	blue	black
189.7064318000339	1.0006340998224914	feedback_monetary_loss_negative	n/a	n/a	n/a	S	SD013.jpg	SD014.jpg	blue	black
190.7072815001011	1.0007210997864604	ITI	n/a	n/a	n/a	S	SD013.jpg	SD014.jpg	blue	black
191.7195803001523	2.501303799916059	decision_monetary_win	2.151700899936259	8	right	S	SD027.jpg	SD028.jpg	green	grey
194.22106759995222	1.006456899922341	ISI	n/a	n/a	n/a	S	SD027.jpg	SD028.jpg	green	grey
195.22759710019454	1.000778999645263	feedback_monetary_win_neutral	n/a	n/a	n/a	S	SD027.jpg	SD028.jpg	green	grey
196.22859640000388	2.001363200135529	ITI	n/a	n/a	n/a	S	SD027.jpg	SD028.jpg	green	grey
198.2435034001246	2.5039765001274645	decision_monetary_win	2.384077599737793	3	left	S	SD037.jpg	SD038.jpg	red	brown
200.74768300028518	0.5027335998602211	ISI	n/a	n/a	n/a	S	SD037.jpg	SD038.jpg	red	brown
201.25049920007586	1.01685700006783	feedback_monetary_win_positive	n/a	n/a	n/a	S	SD037.jpg	SD038.jpg	red	brown
202.267802500166	4.002061499748379	ITI	n/a	n/a	n/a	S	SD037.jpg	SD038.jpg	red	brown
206.2853064001538	2.501327400095761	decision_monetary_win	1.496818299870938	3	left	S	SD035.jpg	SD036.jpg	blue	black
208.78682140028104	0.5023573995567858	ISI	n/a	n/a	n/a	S	SD035.jpg	SD036.jpg	blue	black
209.28925690008327	1.0009130998514593	feedback_monetary_win_positive	n/a	n/a	n/a	S	SD035.jpg	SD036.jpg	blue	black
210.290461699944	1.0002590003423393	ITI	n/a	n/a	n/a	S	SD035.jpg	SD036.jpg	blue	black
211.30610190005973	2.5025524999946356	decision_monetary_win	2.082652799785137	3	left	S	SD029.jpg	SD030.jpg	black	red
213.80883740028366	0.5011580996215343	ISI	n/a	n/a	n/a	S	SD029.jpg	SD030.jpg	black	red
214.31007689982653	1.0006116000004113	feedback_monetary_win_positive	n/a	n/a	n/a	S	SD029.jpg	SD030.jpg	black	red
215.31089650001377	1.0007958998903632	ITI	n/a	n/a	n/a	S	SD029.jpg	SD030.jpg	black	red
216.32419760013	2.5018274998292327	decision_monetary_loss	2.2016936000436544	3	left	S	SD005.jpg	SD006.jpg	black	black
218.82620949996635	1.5053913001902401	ISI	n/a	n/a	n/a	S	SD005.jpg	SD006.jpg	black	black
220.33171730022877	1.0017769997939467	feedback_monetary_loss_negative	n/a	n/a	n/a	S	SD005.jpg	SD006.jpg	black	black
221.33369929995388	5.0028181001544	ITI	n/a	n/a	n/a	S	SD005.jpg	SD006.jpg	black	black
226.34906850010157	2.5012171999551356	decision_monetary_loss	1.833987900055945	8	right	D	DD011.jpg	DD012.jpg	brown	brown
228.85052780015394	0.505435099825263	ISI	n/a	n/a	n/a	D	DD011.jpg	DD012.jpg	brown	brown
229.35603469982743	1.0004318002611399	feedback_monetary_loss_negative	n/a	n/a	n/a	D	DD011.jpg	DD012.jpg	brown	brown
230.35663809999824	4.003105000127107	ITI	n/a	n/a	n/a	D	DD011.jpg	DD012.jpg	brown	brown
234.37413909984753	2.502300700172782	decision_monetary_loss	1.8472749004140496	3	left	D	DD021.jpg	DD022.jpg	red	blue
236.87662140000612	0.5023007998242974	ISI	n/a	n/a	n/a	D	DD021.jpg	DD022.jpg	red	blue
237.3789985999465	1.000844200141728	feedback_monetary_loss_neutral	n/a	n/a	n/a	D	DD021.jpg	DD022.jpg	red	blue
238.37999620009214	1.0009383000433445	ITI	n/a	n/a	n/a	D	DD021.jpg	DD022.jpg	red	blue
239.39633350027725	2.5019124997779727	decision_monetary_loss	2.38125789957121	3	left	S	SD003.jpg	SD004.jpg	yellow	white
241.8984300000593	1.5021967999637127	ISI	n/a	n/a	n/a	S	SD003.jpg	SD004.jpg	yellow	white
243.40074359998107	1.0006432002410293	feedback_monetary_loss_negative	n/a	n/a	n/a	S	SD003.jpg	SD004.jpg	yellow	white
244.40154780028388	4.003120299894363	ITI	n/a	n/a	n/a	S	SD003.jpg	SD004.jpg	yellow	white
248.41833940008655	2.501820699777454	decision_monetary_win	2.1816178001463413	3	left	S	SD033.jpg	SD034.jpg	brown	red
250.92034139996395	1.504515300039202	ISI	n/a	n/a	n/a	S	SD033.jpg	SD034.jpg	brown	red
252.42492760019377	1.0004662997089326	feedback_monetary_win_positive	n/a	n/a	n/a	S	SD033.jpg	SD034.jpg	brown	red
253.42559739993885	3.0023865001276135	ITI	n/a	n/a	n/a	S	SD033.jpg	SD034.jpg	brown	red
256.44183850008994	2.501516299787909	decision_monetary_loss	1.7649062001146376	8	right	D	DD013.jpg	DD014.jpg	brown	green
258.9436383000575	0.5035537998192012	ISI	n/a	n/a	n/a	D	DD013.jpg	DD014.jpg	brown	green
259.447263199836	1.0007155002094805	feedback_monetary_loss_negative	n/a	n/a	n/a	D	DD013.jpg	DD014.jpg	brown	green
260.44813869986683	2.0023039001971483	ITI	n/a	n/a	n/a	D	DD013.jpg	DD014.jpg	brown	green
262.46319419983774	2.5015338002704084	decision_monetary_loss	2.4317091000266373	3	left	D	DD007.jpg	DD008.jpg	blue	blue
264.96491059986874	2.0051907002925873	ISI	n/a	n/a	n/a	D	DD007.jpg	DD008.jpg	blue	blue
266.9701727000065	1.0009353002533317	feedback_monetary_loss_negative	n/a	n/a	n/a	D	DD007.jpg	DD008.jpg	blue	blue
267.97126010013744	4.0028451001271605	ITI	n/a	n/a	n/a	D	DD007.jpg	DD008.jpg	blue	blue
271.9884270001203	2.501531499903649	decision_monetary_loss	1.865369400009513	3	left	S	SD007.jpg	SD008.jpg	brown	blue
274.49014090001583	0.5031984001398087	ISI	n/a	n/a	n/a	S	SD007.jpg	SD008.jpg	brown	blue
274.99341339990497	1.0008252002298832	feedback_monetary_loss_negative	n/a	n/a	n/a	S	SD007.jpg	SD008.jpg	brown	blue
275.99439969984815	3.0022991001605988	ITI	n/a	n/a	n/a	S	SD007.jpg	SD008.jpg	brown	blue
279.0091559002176	2.501372399739921	decision_monetary_win	2.200895399786532	3	left	S	SD025.jpg	SD026.jpg	green	gray
281.5107235000469	0.5051457998342812	ISI	n/a	n/a	n/a	S	SD025.jpg	SD026.jpg	green	gray
282.0159423998557	1.0007444000802934	feedback_monetary_win_neutral	n/a	n/a	n/a	S	SD025.jpg	SD026.jpg	green	gray
283.0168602000922	3.002169399987906	ITI	n/a	n/a	n/a	S	SD025.jpg	SD026.jpg	green	gray
286.0316273001954	2.506135799922049	decision_monetary_win_MISSED	missed	missed	missed	D	DD025.jpg	DD026.jpg	brown	white
288.5379309998825	0.5002784002572298	ISI	n/a	n/a	n/a	D	DD025.jpg	DD026.jpg	brown	white
289.0383311002515	1.0006635999307036	feedback_monetary_win_MISSED	n/a	n/a	n/a	D	DD025.jpg	DD026.jpg	brown	white
290.03915550000966	6.004448799882084	ITI	n/a	n/a	n/a	D	DD025.jpg	DD026.jpg	brown	white
