onset	duration	trial_type	rt	resp	selection	gender	image	image_type
0.0	1.0	ISI	n/a	n/a	n/a	n/a	n/a	n/a
1.018978400155902	2.751302700024098	decision_social	2.576962700113654	2	recall_loss	M	MF036.jpg	black
3.770663100294769	6.504027199931443	ISI	n/a	n/a	n/a	M	MF036.jpg	black
10.279754500370473	2.751852999906987	decision_social	1.4072751998901367	1	recall_win	F	FF010.jpg	white
13.031974100042135	4.015739900059998	ISI	n/a	n/a	n/a	F	FF010.jpg	white
17.0524690002203	2.750887599773705	decision_social	1.857598999980837	9	predict_loss	M	MF041.jpg	white
19.803758000023663	3.2648069001734257	ISI	n/a	n/a	n/a	M	MF041.jpg	white
23.073608600068837	2.751584100071341	decision_social	1.7742902003228664	9	predict_loss	M	MF035.jpg	latino
25.82555410033092	5.266775199677795	ISI	n/a	n/a	n/a	M	MF035.jpg	latino
31.097532300278544	2.751531499903649	decision_social	1.7393056000582874	1	recall_win	F	FF038.jpg	latino
33.849426300264895	2.513113100081682	ISI	n/a	n/a	n/a	F	FF038.jpg	latino
36.367337699979544	2.751780300401151	decision_social	2.60920840036124	8	predict_win	M	MF014.jpg	asian
39.11948770005256	2.264472700189799	ISI	n/a	n/a	n/a	M	MF014.jpg	asian
41.388734200038016	2.763844100292772	decision_social_MISSED	missed	missed	missed	M	MF023.jpg	black
44.15296630002558	1.7512393002398312	ISI	0.08387660002335906	2	recall_loss	M	MF023.jpg	black
45.90885340003297	2.75179130025208	decision_social	2.6589579000137746	8	predict_win	M	MF012.jpg	black
48.66100650001317	1.7634106003679335	ISI	n/a	n/a	n/a	M	MF012.jpg	black
50.42918680002913	2.750397900119424	decision_social	1.7070707003585994	1	recall_win	M	MF005.jpg	white
53.1801678002812	2.0144253000617027	ISI	n/a	n/a	n/a	M	MF005.jpg	white
55.199410600122064	2.7518535000272095	decision_social	2.292282300069928	3	recall_neutral	M	MF040.jpg	asian
57.9516597003676	2.7645787997171283	ISI	n/a	n/a	n/a	M	MF040.jpg	asian
60.72106400039047	2.7519008996896446	decision_social	2.5416847998276353	3	recall_neutral	M	MF024.jpg	asian
63.47337600030005	1.0126200998201966	ISI	n/a	n/a	n/a	M	MF024.jpg	asian
64.49089070037007	2.751560299657285	decision_social	2.4743977999314666	8	predict_win	M	MF026.jpg	asian
67.24298330023885	2.263827399816364	ISI	n/a	n/a	n/a	M	MF026.jpg	asian
69.51294180005789	2.751000199932605	decision_social	2.272850400302559	1	recall_win	M	MF033.jpg	white
72.26435800036415	2.013040099758655	ISI	n/a	n/a	n/a	M	MF033.jpg	white
74.28243790008128	2.7508107000030577	decision_social	1.9235972999595106	0	predict_neutral	M	MF021.jpg	black
77.03361929999664	2.014858200214803	ISI	n/a	n/a	n/a	M	MF021.jpg	black
79.05382140027359	2.752248600125313	decision_social	1.5559970997273922	1	recall_win	F	FF008.jpg	black
81.80644180020317	1.2611178997904062	ISI	n/a	n/a	n/a	F	FF008.jpg	black
83.07275249995291	2.7509789001196623	decision_social	1.4234488001093268	1	recall_win	M	MF030.jpg	black
85.82422750024125	2.5154316001571715	ISI	n/a	n/a	n/a	M	MF030.jpg	black
88.3446390000172	2.7521621002815664	decision_social	2.1235139002092183	8	predict_win	F	FF014.jpg	black
91.09716999996454	1.2618233002722263	ISI	n/a	n/a	n/a	F	FF014.jpg	black
92.36406570021063	2.751519499812275	decision_social	1.9069878999143839	2	recall_loss	F	FF028.jpg	asian
95.11596970027313	1.262764499988407	ISI	n/a	n/a	n/a	F	FF028.jpg	asian
96.38408520026132	2.750797300133854	decision_social	2.174148099962622	3	recall_neutral	F	FF005.jpg	white
99.13524860003963	1.0135556999593973	ISI	n/a	n/a	n/a	F	FF005.jpg	white
100.15381100028753	2.751052299980074	decision_social	1.991221799980849	0	predict_neutral	F	FF035.jpg	latino
102.90522650023922	5.016697899904102	ISI	n/a	n/a	n/a	F	FF035.jpg	latino
107.92686450015754	2.7517810999415815	decision_social	2.3751226998865604	1	recall_win	F	FF023.jpg	white
110.67900270037353	1.512962399981916	ISI	n/a	n/a	n/a	F	FF023.jpg	white
112.19704010011628	2.750413700006902	decision_social	2.591190000064671	8	predict_win	M	MF008.jpg	white
114.94783300021663	1.2641141000203788	ISI	n/a	n/a	n/a	M	MF008.jpg	white
116.21710940031335	2.7515807999297976	decision_social	1.6563949999399483	1	recall_win	F	FF036.jpg	black
118.96905810013413	2.013489100150764	ISI	n/a	n/a	n/a	F	FF036.jpg	black
120.98784800013527	2.763647200074047	decision_social_MISSED	missed	missed	missed	F	FF016.jpg	asian
123.75185170024633	3.7517169998027384	ISI	0.26757319970056415	3	recall_neutral	F	FF016.jpg	asian
127.50831720000133	2.7508609001524746	decision_social	1.6748939002864063	1	recall_win	M	MF002.jpg	asian
130.2595629002899	2.7682547997683287	ISI	n/a	n/a	n/a	M	MF002.jpg	asian
133.03363190032542	2.7503636996261775	decision_social	1.538192699663341	2	recall_loss	M	MF025.jpg	white
135.78435800038278	6.516515299677849	ISI	n/a	n/a	n/a	M	MF025.jpg	white
142.30625590030104	2.7506090998649597	decision_social	1.788834999781102	3	recall_neutral	F	FF020.jpg	asian
145.05740710021928	1.2629462000913918	ISI	n/a	n/a	n/a	F	FF020.jpg	asian
146.32639269996434	2.752068300265819	decision_social	2.2224273001775146	9	predict_loss	F	FF031.jpg	latino
149.0789263001643	1.5113384001888335	ISI	n/a	n/a	n/a	F	FF031.jpg	latino
150.5954056000337	2.751297800336033	decision_social	1.7902458999305964	1	recall_win	F	FF002.jpg	black
153.34706240007654	3.7652640002779663	ISI	n/a	n/a	n/a	F	FF002.jpg	black
157.11786530027166	2.7510029999539256	decision_social	1.7730919998139143	0	predict_neutral	F	FF009.jpg	asian
159.86923220008612	2.013388200197369	ISI	n/a	n/a	n/a	F	FF009.jpg	asian
161.88765340019017	2.7510405997745693	decision_social	2.1406792998313904	8	predict_win	M	MF017.jpg	white
164.63906390033662	1.2638709996826947	ISI	n/a	n/a	n/a	M	MF017.jpg	white
165.9082629000768	2.7526457998901606	decision_social	1.7084949002601206	1	recall_win	F	FF037.jpg	latino
168.66130080027506	2.762546299956739	ISI	n/a	n/a	n/a	F	FF037.jpg	latino
171.42913240008056	2.751909399870783	decision_social	1.7076797001063824	3	recall_neutral	F	FF004.jpg	white
174.1814105003141	1.5123225999996066	ISI	n/a	n/a	n/a	F	FF004.jpg	white
175.69936410011724	2.750680100172758	decision_social	1.8736668000929058	1	recall_win	F	FF026.jpg	latino
178.4504051003605	1.7642782996408641	ISI	n/a	n/a	n/a	F	FF026.jpg	latino
180.2200245000422	2.751266600098461	decision_social	1.4230982000008225	2	recall_loss	F	FF024.jpg	asian
182.97165350010619	5.749983999878168	ISI	n/a	n/a	n/a	F	FF024.jpg	asian
188.72668950026855	2.7511042999103665	decision_social	2.625457299873233	9	predict_loss	M	MF011.jpg	latino
191.47815510025248	6.2508008000440896	ISI	n/a	n/a	n/a	M	MF011.jpg	latino
197.734268900007	2.7521265000104904	decision_social	2.590545800048858	3	recall_neutral	F	FF030.jpg	white
200.48675739997998	5.515766800381243	ISI	n/a	n/a	n/a	F	FF030.jpg	white
206.0079546002671	2.7508636000566185	decision_social	1.8899709000252187	0	predict_neutral	F	FF039.jpg	white
208.7591834999621	1.0132591002620757	ISI	n/a	n/a	n/a	F	FF039.jpg	white
209.77775010000914	2.7511774003505707	decision_social	1.6909777000546455	1	recall_win	F	FF042.jpg	white
212.52929190034047	1.0125255999155343	ISI	n/a	n/a	n/a	F	FF042.jpg	white
213.54697000002488	2.752145200036466	decision_social	1.4750016001053154	1	recall_win	M	MF039.jpg	black
216.29947700025514	3.7646626997739077	ISI	n/a	n/a	n/a	M	MF039.jpg	black
220.0694914003834	2.751637199893594	decision_social	1.8567547998391092	3	recall_neutral	F	FF012.jpg	latino
222.82171980012208	1.7628398002125323	ISI	n/a	n/a	n/a	F	FF012.jpg	latino
224.58968270011246	2.7509460002183914	decision_social	2.0415138001553714	3	recall_neutral	M	MF015.jpg	black
227.34099190030247	1.0134374997578561	ISI	n/a	n/a	n/a	M	MF015.jpg	black
228.3598413001746	2.752009999938309	decision_social	1.3072871998883784	1	recall_win	M	MF027.jpg	white
231.11230020038784	3.013470399659127	ISI	n/a	n/a	n/a	M	MF027.jpg	white
234.1311241001822	2.750610299874097	decision_social	1.6242665997706354	2	recall_loss	M	MF018.jpg	latino
236.8820956000127	2.7648864001967013	ISI	n/a	n/a	n/a	M	MF018.jpg	latino
239.65222340030596	2.751595600042492	decision_social	2.425089499913156	3	recall_neutral	F	FF006.jpg	asian
242.4041826003231	4.515459700021893	ISI	n/a	n/a	n/a	F	FF006.jpg	asian
246.9248755001463	2.751026200130582	decision_social	1.5243290001526475	1	recall_win	F	FF040.jpg	black
249.67632189998403	1.7639236999675632	ISI	n/a	n/a	n/a	F	FF040.jpg	black
251.4460776001215	2.7510130000300705	decision_social	2.20742250001058	9	predict_loss	M	MF022.jpg	latino
254.19746310031042	3.014020700007677	ISI	n/a	n/a	n/a	M	MF022.jpg	latino
257.21680109994486	2.7641155002638698	decision_social_MISSED	missed	missed	missed	M	MF037.jpg	asian
259.98128880001605	3.752207700163126	ISI	n/a	n/a	n/a	M	MF037.jpg	asian
263.7388834003359	2.751053299754858	decision_social	1.4894256996922195	8	predict_win	M	MF006.jpg	black
266.4903009003028	1.2635033996775746	ISI	n/a	n/a	n/a	M	MF006.jpg	black
267.7592138000764	2.750996300019324	decision_social	1.9233238999731839	8	predict_win	M	MF007.jpg	asian
270.5106000001542	3.0144038000144064	ISI	n/a	n/a	n/a	M	MF007.jpg	asian
273.5308697000146	2.7504704003222287	decision_social	2.189794700127095	9	predict_loss	F	FF032.jpg	black
276.281702300068	1.012891999911517	ISI	n/a	n/a	n/a	F	FF032.jpg	black
277.3000030000694	2.7517968001775444	decision_social	1.806772000156343	0	predict_neutral	M	MF042.jpg	asian
280.0521629001014	2.5134846000000834	ISI	n/a	n/a	n/a	M	MF042.jpg	asian
282.5710583999753	2.7512513999827206	decision_social	1.4730717004276812	0	predict_neutral	M	MF032.jpg	white
285.32267260039225	6.000142499804497	ISI	n/a	n/a	n/a	M	MF032.jpg	white
291.3284074002877	2.750624400097877	decision_social	2.090590499807149	8	predict_win	M	MF028.jpg	black
294.0794009002857	2.2642894997261465	ISI	n/a	n/a	n/a	M	MF028.jpg	black
296.349108800292	2.7637259997427464	decision_social_MISSED	missed	missed	missed	F	FF022.jpg	latino
299.11332470038906	1.5008886996656656	ISI	0.2511746999807656	1	recall_win	F	FF022.jpg	latino
300.6196509003639	2.7525331997312605	decision_social	2.6737495996057987	2	recall_loss	M	MF004.jpg	white
303.3725467999466	1.0112411002628505	ISI	n/a	n/a	n/a	M	MF004.jpg	white
304.3896425003186	2.750450999941677	decision_social	2.424287499859929	0	predict_neutral	F	FF015.jpg	black
307.1404567002319	2.2640375001356006	ISI	n/a	n/a	n/a	F	FF015.jpg	black
309.41037860000506	2.751323299948126	decision_social	1.538999699987471	1	recall_win	F	FF027.jpg	latino
312.1620717002079	2.0142747000791132	ISI	n/a	n/a	n/a	F	FF027.jpg	latino
314.1828674003482	2.7514024996198714	decision_social	2.2877016998827457	1	recall_win	F	FF034.jpg	white
316.93463610019535	6.264940700028092	ISI	n/a	n/a	n/a	F	FF034.jpg	white
323.2052418002859	2.7509717997163534	decision_social	1.555354899726808	0	predict_neutral	M	MF029.jpg	white
325.95657599996775	3.764615800231695	ISI	n/a	n/a	n/a	M	MF029.jpg	white
329.7268648003228	2.7506812000647187	decision_social	2.241082899738103	3	recall_neutral	F	FF013.jpg	white
332.477928600274	1.5133094997145236	ISI	n/a	n/a	n/a	F	FF013.jpg	white
333.9968901001848	2.751470500137657	decision_social	1.773277800064534	1	recall_win	F	FF033.jpg	black
336.7487310003489	1.0124255996197462	ISI	n/a	n/a	n/a	F	FF033.jpg	black
337.76667449995875	2.7515657003968954	decision_social	2.341391700319946	3	recall_neutral	F	FF041.jpg	latino
340.5186018003151	1.5132905999198556	ISI	n/a	n/a	n/a	F	FF041.jpg	latino
342.0373585000634	2.7515445998869836	decision_social	1.7902701999992132	2	recall_loss	F	FF001.jpg	latino
344.7892669001594	2.5130604999139905	ISI	n/a	n/a	n/a	F	FF001.jpg	latino
347.3078205999918	2.750793999992311	decision_social	2.2078385003842413	8	predict_win	F	FF011.jpg	white
350.058975700289	1.0127896000631154	ISI	n/a	n/a	n/a	F	FF011.jpg	white
351.0773729002103	2.7518131998367608	decision_social	1.6404082998633385	3	recall_neutral	F	FF029.jpg	asian
353.82955310028046	1.5128985000774264	ISI	n/a	n/a	n/a	F	FF029.jpg	asian
355.34843780007213	2.751619200222194	decision_social	2.0405427999794483	0	predict_neutral	M	MF034.jpg	latino
358.10042690020055	3.513730099890381	ISI	n/a	n/a	n/a	M	MF034.jpg	latino
361.6196298003197	2.7510520997457206	decision_social	2.2410252997651696	3	recall_neutral	F	FF017.jpg	asian
364.3710441002622	2.764176399912685	ISI	n/a	n/a	n/a	F	FF017.jpg	asian
367.14087809994817	2.7518891002982855	decision_social	2.6739753000438213	8	predict_win	M	MF009.jpg	latino
369.8931353003718	1.262068699579686	ISI	n/a	n/a	n/a	M	MF009.jpg	latino
371.1608795002103	2.751533300150186	decision_social	1.873761700000614	1	recall_win	M	MF019.jpg	white
373.9127744003199	5.766225399915129	ISI	n/a	n/a	n/a	M	MF019.jpg	white
379.68490620004013	2.750732300337404	decision_social	1.3892908999696374	0	predict_neutral	M	MF010.jpg	asian
382.4360021003522	2.764212599955499	ISI	n/a	n/a	n/a	M	MF010.jpg	asian
385.2057377002202	2.7510111001320183	decision_social	2.35795129975304	3	recall_neutral	M	MF016.jpg	asian
387.95731210010126	3.0146466000005603	ISI	n/a	n/a	n/a	M	MF016.jpg	asian
390.9785085003823	2.751198099926114	decision_social	1.571456799749285	1	recall_win	F	FF019.jpg	latino
393.7300671003759	1.0113614997826517	ISI	n/a	n/a	n/a	F	FF019.jpg	latino
394.747023800388	2.751590999774635	decision_social	1.8909156997688115	2	recall_loss	M	MF038.jpg	latino
397.49897540034726	3.0140244998037815	ISI	n/a	n/a	n/a	M	MF038.jpg	latino
400.51876970008016	2.7517256001010537	decision_social	2.1729343002662063	1	recall_win	M	MF001.jpg	black
403.2708587003872	1.0114774997346103	ISI	n/a	n/a	n/a	M	MF001.jpg	black
404.28791159996763	2.7512541003525257	decision_social	1.5576101001352072	2	recall_loss	M	MF003.jpg	latino
407.03953590011224	5.500109300017357	ISI	n/a	n/a	n/a	M	MF003.jpg	latino
412.5453207003884	2.750870699994266	decision_social	1.3553678998723626	3	recall_neutral	F	FF007.jpg	asian
415.2965566003695	4.765775199979544	ISI	n/a	n/a	n/a	F	FF007.jpg	asian
420.0679791001603	2.751652500126511	decision_social	1.623979200143367	0	predict_neutral	F	FF018.jpg	asian
422.81999340001494	6.500292600132525	ISI	n/a	n/a	n/a	F	FF018.jpg	asian
429.3263469003141	2.751117799896747	decision_social	1.7231215997599065	8	predict_win	F	FF025.jpg	black
432.0780040002428	3.264800400007516	ISI	n/a	n/a	n/a	F	FF025.jpg	black
435.34975910000503	2.750691800378263	decision_social	1.8212880003266037	9	predict_loss	F	FF003.jpg	black
438.1008904003538	5.764399699866772	ISI	n/a	n/a	n/a	F	FF003.jpg	black
443.87092610029504	2.7518038996495306	decision_social	1.6898483000695705	2	recall_loss	M	MF020.jpg	latino
446.62310890015215	3.2638135999441147	ISI	n/a	n/a	n/a	M	MF020.jpg	latino
449.8925751000643	2.7628557002171874	decision_social_MISSED	missed	missed	missed	M	MF013.jpg	latino
452.6557875000872	1.250434699933976	ISI	0.3178040999919176	3	recall_neutral	M	MF013.jpg	latino
453.91184800025076	2.751307299826294	decision_social	1.8567241998389363	0	predict_neutral	F	FF021.jpg	black
456.6635451000184	4.015556199941784	ISI	n/a	n/a	n/a	F	FF021.jpg	black
460.68544870009646	2.7509508999064565	decision_social	1.406278499867767	0	predict_neutral	M	MF031.jpg	latino
463.43677240004763	1.2622718000784516	ISI	n/a	n/a	n/a	M	MF031.jpg	latino
