onset	duration	trial_type	rt	resp	selection	gender	image	image_type
0.0	1.0	ISI	n/a	n/a	n/a	n/a	n/a	n/a
1.0189370000734925	2.751914400025271	decision_social	1.7418404999189079	8	recall_loss	F	FF005.jpg	white
3.7711612000130117	1.0118728000670671	ISI	n/a	n/a	n/a	F	FF005.jpg	white
4.786415100097656	2.7506543999770656	decision_social	1.2244347999803722	3	predict_loss	F	FF022.jpg	latino
7.537371700047515	1.512267200043425	ISI	n/a	n/a	n/a	F	FF022.jpg	latino
9.052952800062485	2.7509638000046834	decision_social	1.4417541000293568	9	recall_win	F	FF037.jpg	latino
11.804216500022449	2.012059499975294	ISI	n/a	n/a	n/a	F	FF037.jpg	latino
13.819661100045778	2.7506756000220776	decision_social	1.4240656000329182	8	recall_loss	M	MF031.jpg	latino
16.57064100005664	3.7623665999853984	ISI	n/a	n/a	n/a	M	MF031.jpg	latino
20.336488700006157	2.750619300059043	decision_social	2.27406800002791	4	predict_neutral	M	MF042.jpg	asian
23.08742560003884	1.0120701000560075	ISI	n/a	n/a	n/a	M	MF042.jpg	asian
24.103103100089356	2.7518148999661207	decision_social	0.9065702999942005	4	predict_neutral	F	FF024.jpg	asian
26.855226100073196	4.760920699918643	ISI	n/a	n/a	n/a	F	FF024.jpg	asian
31.619744700030424	2.7508195999544114	decision_social	1.9244514000602067	9	recall_win	M	MF013.jpg	latino
34.370874600019306	3.0122329000150785	ISI	n/a	n/a	n/a	M	MF013.jpg	latino
37.38669710000977	2.7509486000053585	decision_social	1.4569745999760926	3	predict_loss	F	FF013.jpg	white
40.13795320002828	2.5115748000098392	ISI	n/a	n/a	n/a	F	FF013.jpg	white
42.65297699999064	2.751358300098218	decision_social	1.607751600095071	9	recall_win	M	MF021.jpg	black
45.40464660001453	1.261476300074719	ISI	n/a	n/a	n/a	M	MF021.jpg	black
46.66954660008196	2.7520925999851897	decision_social	0.9901382999960333	9	recall_win	M	MF033.jpg	white
49.42194870009553	6.510906899929978	ISI	n/a	n/a	n/a	M	MF033.jpg	white
55.93629059998784	2.7518376000225544	decision_social	1.32339250005316	3	predict_loss	M	MF022.jpg	latino
58.688443900085986	5.7610206999816	ISI	n/a	n/a	n/a	M	MF022.jpg	latino
64.4529452000279	2.750512000056915	decision_social	1.3073455999838188	3	predict_loss	F	FF007.jpg	asian
67.2038236000808	1.0122458999976516	ISI	n/a	n/a	n/a	F	FF007.jpg	asian
68.2195663000457	2.7521792999468744	decision_social	1.3239105000393465	9	recall_win	F	FF010.jpg	white
70.97206150006969	2.0107412999495864	ISI	n/a	n/a	n/a	F	FF010.jpg	white
72.98625940002967	2.7505207000067458	decision_social	1.3574112000642344	3	predict_loss	F	FF042.jpg	white
75.73710500006564	2.0123707000166178	ISI	n/a	n/a	n/a	F	FF042.jpg	white
77.75293290009722	2.7507997999200597	decision_social	1.9747776999138296	8	recall_loss	F	FF027.jpg	latino
80.50404010002967	3.0120915999868885	ISI	n/a	n/a	n/a	F	FF027.jpg	latino
83.51969600003213	2.7510774000547826	decision_social	1.8581236000172794	9	recall_win	F	FF008.jpg	black
86.27110210002866	1.0116972000105307	ISI	n/a	n/a	n/a	F	FF008.jpg	black
87.28638310008682	2.7507788999937475	decision_social	1.8911932999035344	7	recall_neutral	M	MF020.jpg	latino
90.03747840004507	2.0118429999565706	ISI	n/a	n/a	n/a	M	MF020.jpg	latino
92.05282139999326	2.750952900038101	decision_social	1.508239999995567	7	recall_neutral	M	MF016.jpg	asian
94.80409730004612	1.2619129000231624	ISI	n/a	n/a	n/a	M	MF016.jpg	asian
96.06961460004095	2.752033600001596	decision_social	1.6248451999854296	8	recall_loss	F	FF030.jpg	white
98.8219650000101	1.7607384000439197	ISI	n/a	n/a	n/a	F	FF030.jpg	white
100.58646460005548	2.750774099957198	decision_social	1.0898748999461532	8	recall_loss	F	FF034.jpg	white
103.33755910000764	3.011826700065285	ISI	n/a	n/a	n/a	F	FF034.jpg	white
106.3529528999934	2.751630900078453	decision_social	1.85706230008509	7	recall_neutral	M	MF018.jpg	latino
109.10491200000979	1.0110758000519127	ISI	n/a	n/a	n/a	M	MF018.jpg	latino
110.11961669998709	2.751069000107236	decision_social	1.7570330000016838	8	recall_loss	F	FF012.jpg	latino
112.8711282000877	1.0115764999063686	ISI	n/a	n/a	n/a	F	FF012.jpg	latino
113.88629320007749	2.750918800011277	decision_social	1.5914169999305159	8	recall_loss	F	FF039.jpg	white
116.63753810001072	2.2615455000195652	ISI	n/a	n/a	n/a	F	FF039.jpg	white
118.90276700002141	2.750773600069806	decision_social	2.1403870000503957	2	predict_win	M	MF034.jpg	latino
121.65387030004058	6.512098200037144	ISI	n/a	n/a	n/a	M	MF034.jpg	latino
128.16963050002232	2.7508090999908745	decision_social	1.6399919000687078	7	recall_neutral	M	MF007.jpg	asian
130.9207814000547	1.0118113999487832	ISI	n/a	n/a	n/a	M	MF007.jpg	asian
131.93618240009528	2.750628399895504	decision_social	1.1571147999493405	7	recall_neutral	M	MF002.jpg	asian
134.6871458000969	3.2621192999649793	ISI	n/a	n/a	n/a	M	MF002.jpg	asian
137.9529338000575	2.751049799961038	decision_social	1.6907362999627367	9	recall_win	M	MF036.jpg	black
140.70431200007442	3.511601399979554	ISI	n/a	n/a	n/a	M	MF036.jpg	black
144.2195684000617	2.7513312000082806	decision_social	1.5730978000210598	7	recall_neutral	M	MF041.jpg	white
146.97125539998524	5.261411900050007	ISI	n/a	n/a	n/a	M	MF041.jpg	white
152.23650970007293	2.7502798999194056	decision_social	2.2240806999616325	7	recall_neutral	M	MF019.jpg	white
154.98711900005583	3.7623466999502853	ISI	n/a	n/a	n/a	M	MF019.jpg	white
158.75304620002862	2.7506293000187725	decision_social	1.1402997999684885	8	recall_loss	F	FF035.jpg	latino
161.50400499999523	2.011896100011654	ISI	n/a	n/a	n/a	F	FF035.jpg	latino
163.51957140001468	2.751296699978411	decision_social	1.974625000031665	7	recall_neutral	F	FF041.jpg	latino
166.2711967000505	1.7613785000285134	ISI	n/a	n/a	n/a	F	FF041.jpg	latino
168.03619000001345	2.750277500017546	decision_social	1.8747661000816151	2	predict_win	F	FF028.jpg	asian
170.7868424000917	6.5122431999770924	ISI	n/a	n/a	n/a	F	FF028.jpg	asian
177.3027587000979	2.750275499885902	decision_social	1.3067298999521881	8	recall_loss	F	FF029.jpg	asian
180.05337670003064	1.5124710999662057	ISI	n/a	n/a	n/a	F	FF029.jpg	asian
181.56953670002986	2.7514242000179365	decision_social	1.990860900026746	7	recall_neutral	F	FF002.jpg	black
184.32131790008862	1.5112840000074357	ISI	n/a	n/a	n/a	F	FF002.jpg	black
185.83644089999143	2.7508420000085607	decision_social	1.8732004000339657	9	recall_win	F	FF015.jpg	black
188.5876223000232	1.0114590000594035	ISI	n/a	n/a	n/a	F	FF015.jpg	black
189.6027912000427	2.763000600039959	decision_social_MISSED	missed	missed	missed	M	MF006.jpg	black
192.36607800005004	4.01631079998333	ISI	n/a	n/a	n/a	M	MF006.jpg	black
196.3860810000915	2.7507321999873966	decision_social	1.508168299915269	8	recall_loss	F	FF016.jpg	asian
199.13715200009756	3.0118909999728203	ISI	n/a	n/a	n/a	F	FF016.jpg	asian
202.1531360000372	2.7519198999507353	decision_social	1.4243714000331238	3	predict_loss	F	FF019.jpg	latino
204.90539299999364	5.5103842000244185	ISI	n/a	n/a	n/a	F	FF019.jpg	latino
210.41955620003864	2.752014399971813	decision_social	1.5901486000511795	7	recall_neutral	F	FF026.jpg	latino
213.17191879998427	3.7605054000159726	ISI	n/a	n/a	n/a	F	FF026.jpg	latino
216.9362343000248	2.7507428000681102	decision_social	1.0079396000364795	4	predict_neutral	F	FF017.jpg	asian
219.68732610007282	1.0116939999861643	ISI	n/a	n/a	n/a	F	FF017.jpg	asian
220.70278910000343	2.750398900010623	decision_social	1.4577927000354975	2	predict_win	M	MF008.jpg	white
223.45353830000386	4.512244499986991	ISI	n/a	n/a	n/a	M	MF008.jpg	white
227.9695750999963	2.750976200099103	decision_social	1.4578547000419348	4	predict_neutral	M	MF040.jpg	asian
230.72089180001058	2.761502500041388	ISI	n/a	n/a	n/a	M	MF040.jpg	asian
233.4864372999873	2.750282100052573	decision_social	1.1070602000690997	2	predict_win	M	MF001.jpg	black
236.23705990007147	1.011890699970536	ISI	n/a	n/a	n/a	M	MF001.jpg	black
237.25276870001107	2.7507398000452667	decision_social	1.9744057999923825	4	predict_neutral	M	MF011.jpg	latino
240.00387190002948	3.7619766000425443	ISI	n/a	n/a	n/a	M	MF011.jpg	latino
243.76994170004036	2.7506895000115037	decision_social	1.3222374999895692	8	recall_loss	F	FF006.jpg	asian
246.52098909998313	1.5113268001005054	ISI	n/a	n/a	n/a	F	FF006.jpg	asian
248.03618689998984	2.7514622000744566	decision_social	1.3561317001003772	8	recall_loss	M	MF032.jpg	white
250.7880095000146	5.760960499988869	ISI	n/a	n/a	n/a	M	MF032.jpg	white
256.5528128000442	2.751228400040418	decision_social	1.7735937000252306	3	predict_loss	F	FF009.jpg	asian
259.3043929000851	1.0110663999803364	ISI	n/a	n/a	n/a	F	FF009.jpg	asian
260.3193139000796	2.75088860001415	decision_social	2.423326599993743	9	recall_win	F	FF020.jpg	asian
263.0705545000965	1.5117204999551177	ISI	n/a	n/a	n/a	F	FF020.jpg	asian
264.58611260005273	2.750394199974835	decision_social	1.7241730999667197	4	predict_neutral	M	MF037.jpg	asian
267.3368514000904	6.262098699924536	ISI	n/a	n/a	n/a	M	MF037.jpg	asian
273.60282890009694	2.7509262999519706	decision_social	1.6735284999012947	3	predict_loss	F	FF033.jpg	black
276.3541107000783	1.261488499934785	ISI	n/a	n/a	n/a	F	FF033.jpg	black
277.6194698000327	2.751037499983795	decision_social	1.9730063000461087	3	predict_loss	F	FF004.jpg	white
280.3708738000132	3.2613781000254676	ISI	n/a	n/a	n/a	F	FF004.jpg	white
283.6361451999983	2.7511243000626564	decision_social	2.056263400008902	2	predict_win	M	MF027.jpg	white
286.3876262000995	1.2612697998993099	ISI	n/a	n/a	n/a	M	MF027.jpg	white
287.652777899988	2.750652000075206	decision_social	1.5235438999952748	3	predict_loss	M	MF030.jpg	black
290.40378960000817	1.2617970000719652	ISI	n/a	n/a	n/a	M	MF030.jpg	black
291.6694386000745	2.7626781999133527	decision_social_MISSED	missed	missed	missed	F	FF011.jpg	white
294.43241200002376	1.2665334000485018	ISI	n/a	n/a	n/a	F	FF011.jpg	white
295.70313989999704	2.751462500076741	decision_social	1.4073694000253454	4	predict_neutral	M	MF017.jpg	white
298.4549561000895	6.010583099909127	ISI	n/a	n/a	n/a	M	MF017.jpg	white
304.4696268000407	2.7519558999920264	decision_social	1.606836299994029	3	predict_loss	F	FF014.jpg	black
307.2219341000309	2.5102379999589175	ISI	n/a	n/a	n/a	F	FF014.jpg	black
309.7360572000034	2.751771099981852	decision_social	1.1231045000022277	2	predict_win	F	FF031.jpg	latino
312.4881879000459	1.2606681999750435	ISI	n/a	n/a	n/a	F	FF031.jpg	latino
313.7528972000582	2.750822199974209	decision_social	1.3573077999753878	4	predict_neutral	F	FF032.jpg	black
316.504086800036	1.26150540006347	ISI	n/a	n/a	n/a	F	FF032.jpg	black
317.76946149999276	2.7511849000584334	decision_social	1.9742538999998942	9	recall_win	M	MF035.jpg	latino
320.5210051999893	1.7610706000123173	ISI	n/a	n/a	n/a	M	MF035.jpg	latino
322.28608059999533	2.7514957000967115	decision_social	1.4576312000863254	9	recall_win	M	MF003.jpg	latino
325.0379452999914	1.510888300021179	ISI	n/a	n/a	n/a	M	MF003.jpg	latino
326.55279610003345	2.7507523000240326	decision_social	1.5576598000479862	7	recall_neutral	F	FF036.jpg	black
329.3039147000527	5.761586399981752	ISI	n/a	n/a	n/a	F	FF036.jpg	black
335.0694015000481	2.7508775000460446	decision_social	1.5730717999394983	9	recall_win	M	MF023.jpg	black
337.8206556000514	1.7613724999828264	ISI	n/a	n/a	n/a	M	MF023.jpg	black
339.58602150005754	2.751418299973011	decision_social	1.5230606000404805	7	recall_neutral	M	MF005.jpg	white
342.33781619998626	5.51098300004378	ISI	n/a	n/a	n/a	M	MF005.jpg	white
347.8528146999888	2.7511926000006497	decision_social	1.2227143000345677	4	predict_neutral	M	MF010.jpg	asian
350.6043920000084	2.7609942000126466	ISI	n/a	n/a	n/a	M	MF010.jpg	asian
353.3695397999836	2.7509826000314206	decision_social	1.3395531000569463	4	predict_neutral	M	MF029.jpg	white
356.12089570006356	2.2610760999377817	ISI	n/a	n/a	n/a	M	MF029.jpg	white
358.3859687000513	2.751486200024374	decision_social	1.406674399971962	4	predict_neutral	M	MF024.jpg	asian
361.13783740007784	3.260957899969071	ISI	n/a	n/a	n/a	M	MF024.jpg	asian
364.40366619999986	2.750896800076589	decision_social	2.1555545000592247	2	predict_win	F	FF003.jpg	black
367.15493990003597	2.7604316000360996	ISI	n/a	n/a	n/a	F	FF003.jpg	black
369.91932460002135	2.7515369000611827	decision_social	2.541306799976155	8	recall_loss	M	MF009.jpg	latino
372.6712264000671	2.260694699943997	ISI	n/a	n/a	n/a	M	MF009.jpg	latino
374.93602900009137	2.7508061999687925	decision_social	1.4563136999495327	4	predict_neutral	F	FF023.jpg	white
377.68720799998846	4.011275500059128	ISI	n/a	n/a	n/a	F	FF023.jpg	white
381.7024696000153	2.7510688999900594	decision_social	1.723028099979274	4	predict_neutral	M	MF015.jpg	black
384.45391300006304	3.761399899958633	ISI	n/a	n/a	n/a	M	MF015.jpg	black
388.2195057000499	2.7521076999837533	decision_social	1.4569522000383586	9	recall_win	F	FF025.jpg	black
390.9719910999993	2.5099866000236943	ISI	n/a	n/a	n/a	F	FF025.jpg	black
393.48602429998573	2.750340700033121	decision_social	1.3074194000801072	9	recall_win	F	FF040.jpg	black
396.23674459999893	6.262146900058724	ISI	n/a	n/a	n/a	F	FF040.jpg	black
402.50291420007125	2.7505615999689326	decision_social	1.9405292000155896	3	predict_loss	F	FF038.jpg	latino
405.25385129998904	2.2613259000936523	ISI	n/a	n/a	n/a	F	FF038.jpg	latino
407.5191962000681	2.7509582999628037	decision_social	1.7899912999710068	3	predict_loss	M	MF014.jpg	asian
410.2705311999889	2.761347100022249	ISI	n/a	n/a	n/a	M	MF014.jpg	asian
413.03608630003873	2.751265999977477	decision_social	1.4073850000277162	2	predict_win	M	MF028.jpg	black
415.7877339000115	2.510983100044541	ISI	n/a	n/a	n/a	M	MF028.jpg	black
418.30291510000825	2.751349400030449	decision_social	1.907344700070098	7	recall_neutral	F	FF001.jpg	latino
421.05464340001345	1.2604248999850824	ISI	n/a	n/a	n/a	F	FF001.jpg	latino
422.3191620000871	2.7503536998992786	decision_social	1.1403440999565646	4	predict_neutral	M	MF012.jpg	black
425.0698924000608	3.0119909000350162	ISI	n/a	n/a	n/a	M	MF012.jpg	black
428.0859311000677	2.7507777999853715	decision_social	1.8905611999798566	2	predict_win	F	FF021.jpg	black
430.83708640001714	1.7615987000754103	ISI	n/a	n/a	n/a	F	FF021.jpg	black
432.60286169999745	2.751043300027959	decision_social	1.9226208000909537	3	predict_loss	M	MF004.jpg	white
435.35428309999406	2.010857900022529	ISI	n/a	n/a	n/a	M	MF004.jpg	white
437.3692840000149	2.7516075000166893	decision_social	2.4061761000193655	4	predict_neutral	M	MF026.jpg	asian
440.1212678999873	2.760644300025888	ISI	n/a	n/a	n/a	M	MF026.jpg	asian
442.8861020000186	2.750474000000395	decision_social	1.190042500034906	4	predict_neutral	M	MF025.jpg	white
445.63695980003104	5.011532400036231	ISI	n/a	n/a	n/a	M	MF025.jpg	white
450.65272760007065	2.751732899923809	decision_social	1.84071869996842	2	predict_win	M	MF039.jpg	black
453.4048448000103	1.5102372000692412	ISI	n/a	n/a	n/a	M	MF039.jpg	black
454.919238600065	2.7502238999586552	decision_social	1.973093800013885	3	predict_loss	M	MF038.jpg	latino
457.66984390001744	2.7619708999991417	ISI	n/a	n/a	n/a	M	MF038.jpg	latino
460.43599850009196	2.751314099994488	decision_social	2.3238915998954326	3	predict_loss	F	FF018.jpg	asian
463.1876961000962	1.2608074999880046	ISI	n/a	n/a	n/a	F	FF018.jpg	asian
