onset	duration	trial_type	rt	resp	selection	gender	image	image_type
0.0	1.0	ISI	n/a	n/a	n/a	n/a	n/a	n/a
1.0206196999642998	2.75197930005379	decision_monetary	2.2799194999970496	8	predict_loss	D	SD001.jpg	green
3.772760400082916	1.0101129999384284	ISI	n/a	n/a	n/a	D	SD001.jpg	green
4.7866314998827875	2.751708500087261	decision_monetary	1.8631759001873434	2	recall_win	D	SD002.jpg	purple
7.538482999894768	2.5110563000198454	ISI	n/a	n/a	n/a	D	SD002.jpg	purple
10.052816600073129	2.7519308999180794	decision_monetary	2.0138578999321908	2	recall_win	S	SD003.jpg	yellow
12.80488479998894	2.5113287998829037	ISI	n/a	n/a	n/a	S	SD003.jpg	yellow
15.319441200001165	2.914609999861568	decision_monetary	2.9143054999876767	4	recall_neutral	S	SD004.jpg	white
18.23417489998974	1.2652608999051154	ISI	n/a	n/a	n/a	S	SD004.jpg	white
19.502768399892375	2.7506735001225024	decision_monetary	2.2309082001447678	2	recall_win	S	SD005.jpg	black
22.253583899931982	6.512512200046331	ISI	n/a	n/a	n/a	S	SD005.jpg	black
28.76935620000586	2.7520967999007553	decision_monetary	2.4642008000519127	7	predict_neutral	S	SD006.jpg	black
31.52159220003523	1.0112495999783278	ISI	n/a	n/a	n/a	S	SD006.jpg	black
32.536031800089404	2.751667399890721	decision_monetary	2.063701899955049	2	recall_win	D	SD007.jpg	brown
35.287843300029635	1.761568499961868	ISI	n/a	n/a	n/a	D	SD007.jpg	brown
37.05265669990331	2.7518450000789016	decision_monetary	1.6809301001485437	8	predict_loss	S	SD008.jpg	blue
39.80464489990845	2.011355400085449	ISI	n/a	n/a	n/a	S	SD008.jpg	blue
41.81925619998947	2.75158750009723	decision_monetary	2.5810193999204785	3	recall_loss	D	SD009.jpg	blue
44.570972400018945	3.0116826000157744	ISI	n/a	n/a	n/a	D	SD009.jpg	blue
47.58601640001871	2.751523799961433	decision_monetary	2.3636978999711573	2	recall_win	S	SD010.jpg	yellow
50.33768310002051	3.7616562999319285	ISI	n/a	n/a	n/a	S	SD010.jpg	yellow
54.10260439990088	2.7520033000037074	decision_monetary	1.9649837000761181	8	predict_loss	S	SD011.jpg	blue
56.854753700084984	1.0113738998770714	ISI	n/a	n/a	n/a	S	SD011.jpg	blue
57.86950040003285	2.7521281000226736	decision_monetary	2.3473596000112593	9	predict_win	S	SD012.jpg	brown
60.62177410000004	4.010895899962634	ISI	n/a	n/a	n/a	S	SD012.jpg	brown
64.6359520999249	2.76338000013493	decision_monetary_MISSED	missed	missed	missed	S	SD013.jpg	blue
67.39944879990071	2.016610300168395	ISI	n/a	n/a	n/a	S	SD013.jpg	blue
69.41936179995537	2.7520938999950886	decision_monetary	1.6646034999284893	3	recall_loss	S	SD014.jpg	black
72.1716062000487	1.0111094999592751	ISI	n/a	n/a	n/a	S	SD014.jpg	black
73.18657959997654	2.7626698000822216	decision_monetary_MISSED	missed	missed	missed	D	SD015.jpg	yellow
75.94936299999245	5.516703200060874	ISI	n/a	n/a	n/a	D	SD015.jpg	yellow
81.46945480001159	2.7514657999854535	decision_monetary	2.030001299921423	2	recall_win	S	SD016.jpg	brown
84.2210669000633	2.0115575999952853	ISI	n/a	n/a	n/a	S	SD016.jpg	brown
86.2362240999937	2.813657999970019	decision_monetary	2.813358800020069	3	recall_loss	D	SD017.jpg	blue
89.05001970008016	1.2660199999809265	ISI	n/a	n/a	n/a	D	SD017.jpg	blue
90.31946819997393	3.0809987001121044	decision_monetary	3.080686700064689	9	predict_win	S	SD018.jpg	green
93.400609199889	4.515404300065711	ISI	n/a	n/a	n/a	S	SD018.jpg	green
97.91963139991276	2.751008100109175	decision_monetary	2.3811854999512434	8	predict_loss	D	SD019.jpg	brown
100.67079650005326	2.0118711998220533	ISI	n/a	n/a	n/a	D	SD019.jpg	brown
102.6859526000917	3.031342899892479	decision_monetary	3.030882899882272	9	predict_win	S	SD020.jpg	green
105.71743760001846	5.515187199926004	ISI	n/a	n/a	n/a	S	SD020.jpg	green
111.23598499991931	2.75137780001387	decision_monetary	2.5967552000656724	4	recall_neutral	S	SD021.jpg	blue
113.9875060999766	3.0117571998853236	ISI	n/a	n/a	n/a	S	SD021.jpg	blue
117.00284380000085	2.7520558000542223	decision_monetary	1.7134312000125647	8	predict_loss	S	SD022.jpg	red
119.75505879987031	2.7608741000294685	ISI	n/a	n/a	n/a	S	SD022.jpg	red
122.51930480008014	2.7503606998361647	decision_monetary	1.6135817999020219	2	recall_win	S	SD023.jpg	blue
125.26983219990507	3.0131078001577407	ISI	n/a	n/a	n/a	S	SD023.jpg	blue
128.2863859999925	2.946856099879369	decision_monetary	2.9465455999597907	3	recall_loss	D	SD024.jpg	blue
131.2333891999442	1.5158641999587417	ISI	n/a	n/a	n/a	D	SD024.jpg	blue
132.75267000007443	2.752013099845499	decision_monetary	2.5973616999108344	4	recall_neutral	S	SD025.jpg	green
135.50484730000608	1.2609870999585837	ISI	n/a	n/a	n/a	S	SD025.jpg	green
136.76930580008775	2.8485537997912616	decision_monetary	2.848235199926421	2	recall_win	S	SD026.jpg	gray
139.61801330000162	3.2644424000754952	ISI	n/a	n/a	n/a	S	SD026.jpg	gray
142.8858698999975	3.1642906998749822	decision_monetary	3.164005799917504	4	recall_neutral	D	SD027.jpg	green
146.05030869995244	6.015554199926555	ISI	n/a	n/a	n/a	D	SD027.jpg	green
152.06930069997907	2.750751999905333	decision_monetary	2.580324900103733	8	predict_loss	S	SD028.jpg	grey
154.82020580000244	1.5122114000841975	ISI	n/a	n/a	n/a	S	SD028.jpg	grey
156.3358662999235	2.750801700167358	decision_monetary	2.730881900060922	3	recall_loss	D	SD029.jpg	black
159.08681940007955	6.262340299785137	ISI	n/a	n/a	n/a	D	SD029.jpg	black
165.3525930000469	2.751923899864778	decision_monetary	1.7640793998725712	2	recall_win	D	SD030.jpg	red
168.10468009999022	1.5111853000707924	ISI	n/a	n/a	n/a	D	SD030.jpg	red
169.61952469986863	2.750931200105697	decision_monetary	2.1315188000444323	2	recall_win	S	SD031.jpg	red
172.37063089990988	3.7617709001060575	ISI	n/a	n/a	n/a	S	SD031.jpg	red
176.1360061999876	2.751610599923879	decision_monetary	2.0799503999296576	2	recall_win	D	SD032.jpg	purple
178.88778349990025	1.0113778000231832	ISI	n/a	n/a	n/a	D	SD032.jpg	purple
179.90265309996903	2.7505970001220703	decision_monetary	2.1642976000439376	8	predict_loss	D	SD033.jpg	brown
182.6534219000023	5.262341500027105	ISI	n/a	n/a	n/a	D	SD033.jpg	brown
187.91923450003378	2.751424599904567	decision_monetary	2.514400899875909	2	recall_win	D	SD034.jpg	red
190.6708307999652	1.2615648000501096	ISI	n/a	n/a	n/a	D	SD034.jpg	red
191.93585209990852	2.7518452999647707	decision_monetary	1.8647239001002163	3	recall_loss	D	SD035.jpg	blue
194.68786599999294	1.5113142998889089	ISI	n/a	n/a	n/a	D	SD035.jpg	blue
196.20282500004396	2.7512759999372065	decision_monetary	2.1640053999144584	8	predict_loss	D	SD036.jpg	black
198.95427459990606	2.261378300143406	ISI	n/a	n/a	n/a	D	SD036.jpg	black
201.21963539998978	2.797739600064233	decision_monetary	2.797428499907255	3	recall_loss	D	SD037.jpg	red
204.01753300009295	2.7647999997716397	ISI	n/a	n/a	n/a	D	SD037.jpg	red
206.78587280004285	2.7513145999982953	decision_monetary	1.997871199855581	3	recall_loss	S	SD038.jpg	brown
209.5373660000041	2.261695699999109	ISI	n/a	n/a	n/a	S	SD038.jpg	brown
211.8025960000232	2.7511245999485254	decision_monetary	1.7807825999334455	8	predict_loss	D	SD039.jpg	blue
214.55390159995295	2.761737500084564	ISI	n/a	n/a	n/a	D	SD039.jpg	blue
217.3192137000151	2.7519207999575883	decision_monetary	1.5474220998585224	9	predict_win	D	SD040.jpg	brown
220.07131049991585	1.2609695000573993	ISI	n/a	n/a	n/a	D	SD040.jpg	brown
221.33597999997437	2.7511609999928623	decision_monetary	1.6473258000332862	3	recall_loss	D	SD041.jpg	brown
224.08731020009145	1.0117395999841392	ISI	n/a	n/a	n/a	D	SD041.jpg	brown
225.10263730003498	2.75107689993456	decision_monetary	1.3632954999338835	2	recall_win	S	SD042.jpg	purple
227.85389510006644	1.7617672998458147	ISI	n/a	n/a	n/a	S	SD042.jpg	purple
229.61938300007023	2.7504855999723077	decision_monetary	2.3134792000055313	4	recall_neutral	D	DD001.jpg	blue
232.3700463999994	2.7621953000780195	ISI	n/a	n/a	n/a	D	DD001.jpg	blue
235.13592360005714	2.75200799992308	decision_monetary	2.5805567998904735	8	predict_loss	D	DD002.jpg	brown
237.88811579998583	2.7608541999943554	ISI	n/a	n/a	n/a	D	DD002.jpg	brown
240.65250419988297	3.046929500065744	decision_monetary	3.046610100194812	8	predict_loss	S	DD003.jpg	green
243.6996021999512	1.0159690999425948	ISI	n/a	n/a	n/a	S	DD003.jpg	green
244.7192049000878	3.0302332998253405	decision_monetary	3.029951199889183	3	recall_loss	D	DD004.jpg	blue
247.74960420001298	5.766010300023481	ISI	n/a	n/a	n/a	D	DD004.jpg	blue
253.5196201999206	2.7511223000474274	decision_monetary	1.7466659999918193	2	recall_win	D	DD005.jpg	brown
256.27092749997973	1.761303500039503	ISI	n/a	n/a	n/a	D	DD005.jpg	brown
258.0358637999743	2.7515467999037355	decision_monetary	2.7306005000136793	8	predict_loss	S	DD006.jpg	brown
260.7875749999657	2.011402399977669	ISI	n/a	n/a	n/a	S	DD006.jpg	brown
262.8026443000417	2.751202599843964	decision_monetary	1.8811718998476863	2	recall_win	D	DD007.jpg	blue
265.554036000045	2.261497899889946	ISI	n/a	n/a	n/a	D	DD007.jpg	blue
267.81911989999935	2.751062500057742	decision_monetary	2.480312200030312	4	recall_neutral	D	DD008.jpg	blue
270.5704063999001	1.7618476999923587	ISI	n/a	n/a	n/a	D	DD008.jpg	blue
272.33591670007445	3.1308139998000115	decision_monetary	3.130471399985254	8	predict_loss	D	DD009.jpg	white
275.46690230001695	1.765346399974078	ISI	n/a	n/a	n/a	D	DD009.jpg	white
277.23610470001586	3.064682099968195	decision_monetary	3.0643702000379562	4	recall_neutral	D	DD010.jpg	green
280.3009601999074	1.2645627001766115	ISI	n/a	n/a	n/a	D	DD010.jpg	green
281.5691947999876	2.7504521999508142	decision_monetary	2.330254999920726	9	predict_win	D	DD011.jpg	brown
284.319833900081	2.7624124998692423	ISI	n/a	n/a	n/a	D	DD011.jpg	brown
287.0859443999361	2.763980899937451	decision_monetary	2.7636748999357224	2	recall_win	D	DD012.jpg	brown
289.85009510000236	6.515384099911898	ISI	n/a	n/a	n/a	D	DD012.jpg	brown
296.36912759998813	3.0971407000906765	decision_monetary	3.096834700088948	4	recall_neutral	D	DD013.jpg	brown
299.46644129999913	2.2657695000525564	ISI	n/a	n/a	n/a	D	DD013.jpg	brown
301.73600280005485	2.9478374999016523	decision_monetary	2.9475320999044925	8	predict_loss	S	DD014.jpg	green
304.6840172999073	4.014840499963611	ISI	n/a	n/a	n/a	S	DD014.jpg	green
308.70275310007855	2.750907699810341	decision_monetary	1.5469772999640554	2	recall_win	D	DD015.jpg	blue
311.45385350007564	5.7615838998463005	ISI	n/a	n/a	n/a	D	DD015.jpg	blue
317.2192166999448	2.750325200147927	decision_monetary	2.0463487000670284	4	recall_neutral	S	DD016.jpg	brown
319.96974109997973	1.5124476999044418	ISI	n/a	n/a	n/a	S	DD016.jpg	brown
321.48589199990965	2.750707000028342	decision_monetary	2.329739399952814	2	recall_win	D	DD017.jpg	red
324.2367926000152	1.2622427998576313	ISI	n/a	n/a	n/a	D	DD017.jpg	red
325.5027602999471	2.751691099954769	decision_monetary	2.129694600123912	8	predict_loss	S	DD018.jpg	brown
328.2546482998878	6.260741100180894	ISI	n/a	n/a	n/a	S	DD018.jpg	brown
334.5191242999863	3.0480120999272913	decision_monetary	3.047729599988088	8	predict_loss	D	DD019.jpg	blue
337.5673217999283	3.764740400016308	ISI	n/a	n/a	n/a	D	DD019.jpg	blue
341.33584089996293	2.750851900083944	decision_monetary	2.063831999897957	4	recall_neutral	D	DD020.jpg	brown
344.08689130004495	1.5118284998461604	ISI	n/a	n/a	n/a	D	DD020.jpg	brown
345.6024865000509	2.7511684999335557	decision_monetary	1.6812388999387622	9	predict_win	S	DD021.jpg	red
348.3538478000555	5.011450699996203	ISI	n/a	n/a	n/a	S	DD021.jpg	red
353.36911770002916	2.76373380003497	decision_monetary	2.763421199982986	4	recall_neutral	D	DD022.jpg	blue
356.13304260000587	2.015558100072667	ISI	n/a	n/a	n/a	D	DD022.jpg	blue
358.1525866999291	2.7510800999589264	decision_monetary	2.664256399963051	7	predict_neutral	S	DD023.jpg	blue
360.90385230001993	5.761421300005168	ISI	n/a	n/a	n/a	S	DD023.jpg	blue
366.6690770999994	2.751509200083092	decision_monetary	2.0137668000534177	8	predict_loss	S	DD024.jpg	white
369.42078380007297	3.761360100004822	ISI	n/a	n/a	n/a	S	DD024.jpg	white
373.18595810001716	2.7506234999746084	decision_monetary	1.7308274998795241	2	recall_win	S	DD025.jpg	brown
375.9367907999549	2.5118180999998003	ISI	n/a	n/a	n/a	S	DD025.jpg	brown
378.45268370001577	2.7510601999238133	decision_monetary	2.2308990999590605	3	recall_loss	S	DD026.jpg	white
381.203968900023	3.0113416998647153	ISI	n/a	n/a	n/a	S	DD026.jpg	white
384.2194111000281	2.7521368998568505	decision_monetary	2.4302407999057323	7	predict_neutral	S	DD027.jpg	blue
386.9717468000017	1.2602673000656068	ISI	n/a	n/a	n/a	S	DD027.jpg	blue
388.2358212999534	2.750502600101754	decision_monetary	2.6307280000764877	8	predict_loss	S	DD028.jpg	red
390.98659370001405	3.0118116000667214	ISI	n/a	n/a	n/a	S	DD028.jpg	red
394.00227950001135	2.7515328000299633	decision_monetary	1.6127162999473512	2	recall_win	D	DD029.jpg	brown
396.75401889998466	4.7612638999708	ISI	n/a	n/a	n/a	D	DD029.jpg	brown
401.5191694998648	2.830690100090578	decision_monetary	2.830386600224301	3	recall_loss	S	DD030.jpg	brown
404.3500481999945	2.5152648999355733	ISI	n/a	n/a	n/a	S	DD030.jpg	brown
406.86962969996966	2.7508535999804735	decision_monetary	1.8961249999701977	2	recall_win	S	DD031.jpg	pink
409.62068900000304	1.0111171000171453	ISI	n/a	n/a	n/a	S	DD031.jpg	pink
410.63619389990345	2.7511283999774605	decision_monetary	1.9622349999845028	2	recall_win	D	DD032.jpg	red
413.38753429986537	6.510997600154951	ISI	n/a	n/a	n/a	D	DD032.jpg	red
419.9024078999646	2.7508906999137253	decision_monetary	2.680132000008598	9	predict_win	S	DD033.jpg	red
422.6534953999799	1.0117538999766111	ISI	n/a	n/a	n/a	S	DD033.jpg	red
423.66960999998264	2.750965700019151	decision_monetary	1.6968372000847012	2	recall_win	S	DD034.jpg	purple
426.4207846999634	1.2611112999729812	ISI	n/a	n/a	n/a	S	DD034.jpg	purple
427.68574779992923	2.7522672000341117	decision_monetary	2.59778630011715	8	predict_loss	S	DD035.jpg	brown
430.43822790007107	1.260239299852401	ISI	n/a	n/a	n/a	S	DD035.jpg	brown
431.70235699997284	2.75108759989962	decision_monetary	2.3309740000404418	3	recall_loss	D	DD036.jpg	brown
434.4536625999026	1.0115243000909686	ISI	n/a	n/a	n/a	D	DD036.jpg	brown
435.4689867000561	2.7514219998847693	decision_monetary	1.9465647998731583	2	recall_win	D	DD037.jpg	brown
438.2206210999284	3.5110904001630843	ISI	n/a	n/a	n/a	D	DD037.jpg	brown
441.73565039993264	2.751673199934885	decision_monetary	2.2971499001141638	4	recall_neutral	D	DD038.jpg	brown
444.487542900024	3.2608646999578923	ISI	n/a	n/a	n/a	D	DD038.jpg	brown
447.7523640000727	2.7518320998642594	decision_monetary	2.681027599843219	3	recall_loss	D	DD039.jpg	white
450.50440129986964	3.2607683001551777	ISI	n/a	n/a	n/a	D	DD039.jpg	white
453.76910939998925	2.7513095000758767	decision_monetary	1.8477614000439644	8	predict_loss	S	DD040.jpg	black
456.5206387999933	1.0112034999765456	ISI	n/a	n/a	n/a	S	DD040.jpg	black
457.5357325999066	2.7507845000363886	decision_monetary	2.0467364999931306	2	recall_win	S	DD041.jpg	brown
460.2867262000218	1.5116743000689894	ISI	n/a	n/a	n/a	S	DD041.jpg	brown
461.8023629998788	2.7523340000770986	decision_monetary	2.713486600201577	8	predict_loss	S	DD042.jpg	brown
464.55491840001196	3.7601908000651747	ISI	n/a	n/a	n/a	S	DD042.jpg	brown
