onset	duration	trial_type	rt	resp	selection	gender	image	image_type
0.0	1.0	ISI	n/a	n/a	n/a	n/a	n/a	n/a
1.019013699842617	2.7502970001660287	decision_monetary	1.4742635001894087	8	predict_loss	S	SD037.jpg	red
3.7696061998140067	1.2637824001722038	ISI	n/a	n/a	n/a	S	SD037.jpg	red
5.036793499952182	2.751024500001222	decision_monetary	1.9074893000070006	2	recall_win	D	DD017.jpg	red
7.788121899822727	2.7612056001089513	ISI	n/a	n/a	n/a	D	DD017.jpg	red
10.552752899937332	2.751196699915454	decision_monetary	1.9084131000563502	9	predict_win	D	DD031.jpg	pink
13.304252699948847	1.7617667000740767	ISI	n/a	n/a	n/a	D	DD031.jpg	pink
15.069510099943727	2.751490799942985	decision_monetary	1.5405375000555068	8	predict_loss	D	DD007.jpg	blue
17.821298699826002	2.011257000034675	ISI	n/a	n/a	n/a	D	DD007.jpg	blue
19.836106800008565	2.7511183999013156	decision_monetary	1.9571028999052942	9	predict_win	D	DD034.jpg	purple
22.58752779988572	3.761758100008592	ISI	n/a	n/a	n/a	D	DD034.jpg	purple
26.352907299995422	2.7508592000231147	decision_monetary	1.0412041998934	2	recall_win	S	SD001.jpg	green
29.104073399910703	1.5118499000091106	ISI	n/a	n/a	n/a	S	SD001.jpg	green
30.61953949998133	2.751363799907267	decision_monetary	1.506730099907145	3	recall_loss	D	DD035.jpg	brown
33.37120079994202	1.0114132999442518	ISI	n/a	n/a	n/a	D	DD035.jpg	brown
34.38599839992821	2.751161399995908	decision_monetary	1.2903849999420345	2	recall_win	S	SD035.jpg	blue
37.13746919995174	5.761788599891588	ISI	n/a	n/a	n/a	S	SD035.jpg	blue
42.902817899826914	2.7504061001818627	decision_monetary	1.0246892999857664	2	recall_win	D	DD022.jpg	blue
45.6536631998606	6.0121264001354575	ISI	n/a	n/a	n/a	D	DD022.jpg	blue
51.669196699978784	2.7517220999579877	decision_monetary	1.3751409999094903	3	recall_loss	D	DD033.jpg	red
54.421435199910775	1.261039299890399	ISI	n/a	n/a	n/a	D	DD033.jpg	red
55.68613369995728	2.751899699913338	decision_monetary	2.423160299891606	7	predict_neutral	D	DD029.jpg	brown
58.43834099988453	1.5108591001480818	ISI	n/a	n/a	n/a	D	DD029.jpg	brown
59.95280590001494	2.7510601999238133	decision_monetary	2.0564793997909874	9	predict_win	S	SD042.jpg	purple
62.70416669989936	3.0114092000294477	ISI	n/a	n/a	n/a	S	SD042.jpg	purple
65.71910530002788	2.751873299945146	decision_monetary	2.6401330998633057	9	predict_win	D	DD020.jpg	brown
68.47129020001739	1.5112214998807758	ISI	n/a	n/a	n/a	D	DD020.jpg	brown
69.98601479991339	2.7512137000449	decision_monetary	1.4072346000466496	3	recall_loss	S	SD030.jpg	red
72.73757330002263	2.261494099861011	ISI	n/a	n/a	n/a	S	SD030.jpg	red
75.00248049991205	2.7516779999714345	decision_monetary	1.307814700063318	2	recall_win	D	DD013.jpg	brown
77.75446179998107	1.7612566000316292	ISI	n/a	n/a	n/a	D	DD013.jpg	brown
79.5191446999088	2.7502111000940204	decision_monetary	1.6911065999884158	8	predict_loss	S	SD029.jpg	black
82.26965059991926	1.0127973000053316	ISI	n/a	n/a	n/a	S	SD029.jpg	black
83.28604549984448	2.750767700141296	decision_monetary	1.6733673000708222	7	predict_neutral	D	DD025.jpg	brown
86.03711969987489	1.7618867000564933	ISI	n/a	n/a	n/a	D	DD025.jpg	brown
87.80273999995552	2.751796199940145	decision_monetary	1.4745751998852938	7	predict_neutral	D	DD016.jpg	brown
90.55486000003293	3.7608236998785287	ISI	n/a	n/a	n/a	D	DD016.jpg	brown
94.31934399995953	2.7511388999409974	decision_monetary	1.6904756999574602	9	predict_win	S	SD003.jpg	yellow
97.07079479983076	2.0116419000551105	ISI	n/a	n/a	n/a	S	SD003.jpg	yellow
99.08593729999848	2.751905499957502	decision_monetary	2.041331899818033	3	recall_loss	D	DD030.jpg	brown
101.83815209986642	1.01104070013389	ISI	n/a	n/a	n/a	D	DD030.jpg	brown
102.85271899984218	2.750606199959293	decision_monetary	1.1904547000303864	3	recall_loss	S	SD040.jpg	brown
105.60363429994322	4.012040399946272	ISI	n/a	n/a	n/a	S	SD040.jpg	brown
109.61915709986351	2.750685000093654	decision_monetary	1.708072799956426	8	predict_loss	D	DD011.jpg	brown
112.37014609994367	3.2621436999179423	ISI	n/a	n/a	n/a	D	DD011.jpg	brown
115.63583479984663	2.751332800136879	decision_monetary	0.9914117001462728	2	recall_win	S	SD025.jpg	green
118.38749499991536	3.0115394999738783	ISI	n/a	n/a	n/a	S	SD025.jpg	green
121.40260959998704	2.750388399930671	decision_monetary	0.6397402998991311	2	recall_win	D	DD008.jpg	blue
124.15331439999864	5.262305399868637	ISI	n/a	n/a	n/a	D	DD008.jpg	blue
129.41939539997838	2.7504964999388903	decision_monetary	1.491031900048256	8	predict_loss	D	DD021.jpg	red
132.17020939989015	5.512132500065491	ISI	n/a	n/a	n/a	D	DD021.jpg	red
137.68584379996173	2.7514114000368863	decision_monetary	1.757232999894768	2	recall_win	S	SD021.jpg	blue
140.43757309997454	1.0113216999452561	ISI	n/a	n/a	n/a	S	SD021.jpg	blue
141.4524548999034	2.751842200057581	decision_monetary	1.4078114000149071	2	recall_win	D	DD023.jpg	blue
144.2046149999369	2.5109876000788063	ISI	n/a	n/a	n/a	D	DD023.jpg	blue
146.71912109991536	2.75207499996759	decision_monetary	1.4913892999757081	9	predict_win	D	DD009.jpg	white
149.4715252998285	2.0107746000867337	ISI	n/a	n/a	n/a	D	DD009.jpg	white
151.4858301000204	2.750938099808991	decision_monetary	0.8900435999967158	7	predict_neutral	S	SD028.jpg	grey
154.23711709980853	3.0117527002003044	ISI	n/a	n/a	n/a	S	SD028.jpg	grey
157.252533899853	2.7512956999707967	decision_monetary	1.1736821001395583	4	recall_neutral	D	DD042.jpg	brown
160.00415049982257	2.7614009000826627	ISI	n/a	n/a	n/a	D	DD042.jpg	brown
162.76908579980955	2.750331000192091	decision_monetary	1.3081190001685172	2	recall_win	D	DD026.jpg	white
165.51974679995328	6.262538400013	ISI	n/a	n/a	n/a	D	DD026.jpg	white
171.7862099998165	2.751587900100276	decision_monetary	1.9077211001422256	9	predict_win	D	DD014.jpg	green
174.53812339995056	1.0107171998824924	ISI	n/a	n/a	n/a	D	DD014.jpg	green
175.5525255999528	2.7512471000663936	decision_monetary	1.4404716999270022	8	predict_loss	S	SD016.jpg	brown
178.3040948000271	6.5114684998989105	ISI	n/a	n/a	n/a	S	SD016.jpg	brown
184.8191885999404	2.7517710998654366	decision_monetary	1.308032999979332	3	recall_loss	D	DD028.jpg	red
187.57128519983962	1.261263000080362	ISI	n/a	n/a	n/a	D	DD028.jpg	red
188.83643719996326	2.750482300063595	decision_monetary	1.4401483999099582	8	predict_loss	S	SD007.jpg	brown
191.58724589995109	3.5115084999706596	ISI	n/a	n/a	n/a	S	SD007.jpg	brown
195.10246909991838	2.7504050000570714	decision_monetary	1.257893499918282	8	predict_loss	S	SD038.jpg	brown
197.8532026000321	4.012290199985728	ISI	n/a	n/a	n/a	S	SD038.jpg	brown
201.86924739996903	2.751753699965775	decision_monetary	0.9405674999579787	2	recall_win	S	SD009.jpg	blue
204.62132789986208	2.760581700131297	ISI	n/a	n/a	n/a	S	SD009.jpg	blue
207.38560649985448	2.7515469000209123	decision_monetary	1.2736945000942796	9	predict_win	S	SD014.jpg	black
210.13749139988795	1.511271100025624	ISI	n/a	n/a	n/a	S	SD014.jpg	black
211.6525167999789	2.7516502998769283	decision_monetary	1.290610000025481	7	predict_neutral	S	SD015.jpg	yellow
214.40450389985926	2.7609063000418246	ISI	n/a	n/a	n/a	S	SD015.jpg	yellow
217.16910309996456	2.752116800053045	decision_monetary	1.308073200052604	2	recall_win	S	SD023.jpg	blue
219.92155909980647	2.5104639001656324	ISI	n/a	n/a	n/a	S	SD023.jpg	blue
222.43587319995277	2.7518761998508126	decision_monetary	1.1233014999888837	2	recall_win	S	SD017.jpg	blue
225.1880854999181	3.76058469992131	ISI	n/a	n/a	n/a	S	SD017.jpg	blue
228.9523365998175	2.750694600166753	decision_monetary	1.2409717000555247	8	predict_loss	S	SD019.jpg	brown
231.70336980000138	1.2619452998042107	ISI	n/a	n/a	n/a	S	SD019.jpg	brown
232.96900089993142	2.7508956000674516	decision_monetary	1.4242883000988513	7	predict_neutral	D	DD010.jpg	green
235.72023339988664	5.7618257000576705	ISI	n/a	n/a	n/a	D	DD010.jpg	green
241.48586359992623	2.7510480999480933	decision_monetary	1.1243567999918014	2	recall_win	D	DD003.jpg	green
244.2372483999934	1.2613832999486476	ISI	n/a	n/a	n/a	D	DD003.jpg	green
245.50238560000435	2.7517772999126464	decision_monetary	2.039979699999094	4	recall_neutral	D	DD040.jpg	black
248.25450969999656	6.5108444998040795	ISI	n/a	n/a	n/a	D	DD040.jpg	black
254.76909750001505	2.7507307999767363	decision_monetary	1.1400603000074625	8	predict_loss	S	SD022.jpg	red
257.5201659000013	5.761859499849379	ISI	n/a	n/a	n/a	S	SD022.jpg	red
263.2860369000118	2.7510435997974128	decision_monetary	0.9235209999606013	7	predict_neutral	S	SD011.jpg	blue
266.03742949990556	1.7609315000008792	ISI	n/a	n/a	n/a	S	SD011.jpg	blue
267.80218829982914	2.751187500078231	decision_monetary	1.0738452000077814	7	predict_neutral	D	DD018.jpg	brown
270.55372589989565	1.0116016000974923	ISI	n/a	n/a	n/a	D	DD018.jpg	brown
271.56927849981	2.7504213000647724	decision_monetary	0.9077736001927406	8	predict_loss	S	SD032.jpg	purple
274.32004169980064	3.2619370000902563	ISI	n/a	n/a	n/a	S	SD032.jpg	purple
277.58578470000066	2.7510660998523235	decision_monetary	1.5063330999109894	2	recall_win	S	SD027.jpg	green
280.33720279997215	1.261368899838999	ISI	n/a	n/a	n/a	S	SD027.jpg	green
281.602320099948	2.750658700009808	decision_monetary	1.4397825000341982	3	recall_loss	D	DD006.jpg	brown
284.35332949995063	1.0119572998955846	ISI	n/a	n/a	n/a	D	DD006.jpg	brown
285.36916969995946	2.7507815998978913	decision_monetary	1.7409766998607665	7	predict_neutral	D	DD012.jpg	brown
288.1202968999278	3.2615350999403745	ISI	n/a	n/a	n/a	D	DD012.jpg	brown
291.3857104999479	2.752123799873516	decision_monetary	1.4234487998764962	8	predict_loss	S	SD031.jpg	red
294.1381833998021	2.260368400020525	ISI	n/a	n/a	n/a	S	SD031.jpg	red
296.40252080000937	2.7502592999953777	decision_monetary	1.6234594997949898	9	predict_win	S	SD024.jpg	blue
299.15313689992763	1.0121758999302983	ISI	n/a	n/a	n/a	S	SD024.jpg	blue
300.16917839995585	2.7510315000545233	decision_monetary	1.6399550000205636	4	recall_neutral	D	DD041.jpg	brown
302.9205606998876	2.0114406999200583	ISI	n/a	n/a	n/a	D	DD041.jpg	brown
304.9359138000291	2.750913499854505	decision_monetary	1.474223499884829	7	predict_neutral	S	SD005.jpg	black
307.68717899988405	2.2613528999499977	ISI	n/a	n/a	n/a	S	SD005.jpg	black
309.95252769999206	2.7503322998527437	decision_monetary	1.5244423998519778	8	predict_loss	S	SD036.jpg	black
312.70322029991075	3.761970699997619	ISI	n/a	n/a	n/a	S	SD036.jpg	black
316.4691331998911	2.75156749994494	decision_monetary	1.2232333000283688	7	predict_neutral	S	SD002.jpg	purple
319.2210515998304	1.010756100062281	ISI	n/a	n/a	n/a	S	SD002.jpg	purple
320.2357414998114	2.751124700065702	decision_monetary	1.5728663001209497	3	recall_loss	S	SD034.jpg	red
322.9872338999994	5.011127699865028	ISI	n/a	n/a	n/a	S	SD034.jpg	red
328.00221589999273	2.750519499881193	decision_monetary	1.406901199836284	8	predict_loss	S	SD010.jpg	yellow
330.75308279995807	3.0119831999763846	ISI	n/a	n/a	n/a	S	SD010.jpg	yellow
333.76913989987224	2.752046199981123	decision_monetary	1.123989700106904	9	predict_win	D	DD024.jpg	white
336.5215391998645	2.760270999977365	ISI	n/a	n/a	n/a	D	DD024.jpg	white
339.2856940999627	2.751422199886292	decision_monetary	1.4566824999637902	7	predict_neutral	D	DD036.jpg	brown
342.0374729000032	1.7610092000104487	ISI	n/a	n/a	n/a	D	DD036.jpg	brown
343.802408099873	2.7512310000602156	decision_monetary	1.0734496000222862	8	predict_loss	D	DD037.jpg	brown
346.55399939999916	1.2611491000279784	ISI	n/a	n/a	n/a	D	DD037.jpg	brown
347.819015200017	2.7508297997992486	decision_monetary	1.7411457998678088	7	predict_neutral	S	SD033.jpg	brown
350.57019949983805	2.0114703001454473	ISI	n/a	n/a	n/a	S	SD033.jpg	brown
352.58564319997095	2.7521790999453515	decision_monetary	1.1405760999768972	2	recall_win	D	DD004.jpg	blue
355.3381794998422	1.2602395999711007	ISI	n/a	n/a	n/a	D	DD004.jpg	blue
356.6023064998444	2.751993800047785	decision_monetary	1.4068017001263797	2	recall_win	S	SD026.jpg	gray
359.3546744999476	2.5103994000237435	ISI	n/a	n/a	n/a	S	SD026.jpg	gray
361.8690805998631	2.75073070009239	decision_monetary	1.3738617999479175	8	predict_loss	D	DD039.jpg	white
364.6201728999149	4.761267400113866	ISI	n/a	n/a	n/a	D	DD039.jpg	white
369.3854255999904	2.7505582999438047	decision_monetary	1.157779400004074	8	predict_loss	D	DD005.jpg	brown
372.1363525998313	3.7620199001394212	ISI	n/a	n/a	n/a	D	DD005.jpg	brown
375.90247839991935	2.752175899920985	decision_monetary	1.3406028000172228	7	predict_neutral	D	DD032.jpg	red
378.6550082999747	1.5099632998462766	ISI	n/a	n/a	n/a	D	DD032.jpg	red
380.1689303999301	2.7506311000324786	decision_monetary	1.3232311999890953	2	recall_win	D	DD002.jpg	brown
382.919924199814	2.011660300195217	ISI	n/a	n/a	n/a	D	DD002.jpg	brown
384.93559349980205	2.751528700115159	decision_monetary	1.6236700001172721	3	recall_loss	D	DD019.jpg	blue
387.68748719990253	2.5108521000947803	ISI	n/a	n/a	n/a	D	DD019.jpg	blue
390.2023066999391	2.7502216999419034	decision_monetary	1.0243194999638945	3	recall_loss	D	DD015.jpg	blue
392.95289219985716	1.5120574000757188	ISI	n/a	n/a	n/a	D	DD015.jpg	blue
394.4689532998018	2.7506545002106577	decision_monetary	2.090139400213957	7	predict_neutral	D	DD038.jpg	brown
397.21998159983195	1.5115616000257432	ISI	n/a	n/a	n/a	D	DD038.jpg	brown
398.7358452999033	2.7518376999069005	decision_monetary	2.6909133000299335	9	predict_win	S	SD004.jpg	white
401.48801199998707	5.510310499928892	ISI	n/a	n/a	n/a	S	SD004.jpg	white
407.00230950000696	2.7515201999340206	decision_monetary	1.0566436999943107	7	predict_neutral	S	SD013.jpg	blue
409.75418829987757	6.510661700041965	ISI	n/a	n/a	n/a	S	SD013.jpg	blue
416.2689453999046	2.7507770000956953	decision_monetary	1.2571362000890076	8	predict_loss	S	SD012.jpg	brown
419.0200886998791	2.7614331000950187	ISI	n/a	n/a	n/a	S	SD012.jpg	brown
421.78550589992665	2.7520357000175864	decision_monetary	1.5065186000429094	2	recall_win	S	SD008.jpg	blue
424.537970099831	4.509978100191802	ISI	n/a	n/a	n/a	S	SD008.jpg	blue
429.0520072998479	2.7517483001574874	decision_monetary	1.174131599953398	2	recall_win	S	SD018.jpg	green
431.80413209996186	3.010755500057712	ISI	n/a	n/a	n/a	S	SD018.jpg	green
434.8190919999033	2.75056799990125	decision_monetary	1.8401218000799417	7	predict_neutral	D	DD001.jpg	blue
437.57002129987814	2.2614959001075476	ISI	n/a	n/a	n/a	D	DD001.jpg	blue
439.8355972999707	2.7511177000124007	decision_monetary	1.1243962000589818	2	recall_win	D	DD027.jpg	blue
442.5870915998239	1.2611104000825435	ISI	n/a	n/a	n/a	D	DD027.jpg	blue
443.8523128000088	2.750762099865824	decision_monetary	1.206638899864629	8	predict_loss	S	SD006.jpg	black
446.6034560999833	1.2613664998207241	ISI	n/a	n/a	n/a	S	SD006.jpg	black
447.8690517998766	2.7516594000626355	decision_monetary	1.390691100154072	3	recall_loss	S	SD041.jpg	brown
450.62109229993075	6.260391500080004	ISI	n/a	n/a	n/a	S	SD041.jpg	brown
456.8856050998438	2.751097399974242	decision_monetary	1.0744678999762982	2	recall_win	S	SD020.jpg	green
459.6370747999754	1.0110223998781294	ISI	n/a	n/a	n/a	S	SD020.jpg	green
460.6521948999725	2.751729399897158	decision_monetary	0.8908651999663562	2	recall_win	S	SD039.jpg	blue
463.40431799995713	1.0103974000085145	ISI	n/a	n/a	n/a	S	SD039.jpg	blue
