onset	duration	trial_type	rt	resp	selection	gender	image_left	image_right	image_left_type	image_right_type
0.0	1.0	ITI	n/a	n/a	n/a	n/a	n/a	n/a	n/a	n/a
1.02434269990772	2.501778900041245	decision_social_loss	1.2358754000160843	2	right	M	MF015.jpg	MF016.jpg	black	asian
3.5263058999553323	0.5068294999655336	ISI	n/a	n/a	n/a	M	MF015.jpg	MF016.jpg	black	asian
4.0331927998922765	1.01602300000377	feedback_social_loss_neutral	n/a	n/a	n/a	M	MF015.jpg	MF016.jpg	black	asian
5.049315299955197	1.000451699947007	ITI	n/a	n/a	n/a	M	MF015.jpg	MF016.jpg	black	asian
6.057977199903689	2.502135500079021	decision_social_win	1.4375647000269964	2	right	F	FF023.jpg	FF024.jpg	white	asian
8.560275299940258	1.0061872999649495	ISI	n/a	n/a	n/a	F	FF023.jpg	FF024.jpg	white	asian
9.566522099892609	1.0160215001087636	feedback_social_win_neutral	n/a	n/a	n/a	F	FF023.jpg	FF024.jpg	white	asian
10.582644299953245	3.0004277999978513	ITI	n/a	n/a	n/a	F	FF023.jpg	FF024.jpg	white	asian
13.591524899937212	2.5017211999511346	decision_social_win	1.33525170001667	7	left	M	MF041.jpg	MF042.jpg	white	asian
16.09342489996925	2.0062863000202924	ISI	n/a	n/a	n/a	M	MF041.jpg	MF042.jpg	white	asian
18.09976969996933	1.0161308000097051	feedback_social_win_positive	n/a	n/a	n/a	M	MF041.jpg	MF042.jpg	white	asian
19.116013399907388	4.0004191000480205	ITI	n/a	n/a	n/a	M	MF041.jpg	MF042.jpg	white	asian
23.124719199957326	2.500972699956037	decision_social_win	1.7868225999409333	7	left	M	MF031.jpg	MF032.jpg	latino	white
25.62585849990137	1.5072746000951156	ISI	n/a	n/a	n/a	M	MF031.jpg	MF032.jpg	latino	white
27.13319349999074	1.0160394998965785	feedback_social_win_positive	n/a	n/a	n/a	M	MF031.jpg	MF032.jpg	latino	white
28.149353299988434	3.0003752999473363	ITI	n/a	n/a	n/a	M	MF031.jpg	MF032.jpg	latino	white
31.15814779989887	2.5009727000724524	decision_social_win	1.819250800064765	7	left	M	MF039.jpg	MF040.jpg	black	asian
33.65928229992278	2.007117500063032	ISI	n/a	n/a	n/a	M	MF039.jpg	MF040.jpg	black	asian
35.66650289995596	1.0160544000100344	feedback_social_win_positive	n/a	n/a	n/a	M	MF039.jpg	MF040.jpg	black	asian
36.68266239995137	4.000351199996658	ITI	n/a	n/a	n/a	M	MF039.jpg	MF040.jpg	black	asian
40.69143879995681	2.501825699931942	decision_social_loss	1.802656100015156	7	left	F	FF011.jpg	FF012.jpg	white	latino
43.19342729996424	0.5062986999982968	ISI	n/a	n/a	n/a	F	FF011.jpg	FF012.jpg	white	latino
43.699783199932426	1.0160282000433654	feedback_social_loss_negative	n/a	n/a	n/a	F	FF011.jpg	FF012.jpg	white	latino
44.71591799997259	2.0004448000108823	ITI	n/a	n/a	n/a	F	FF011.jpg	FF012.jpg	white	latino
46.72471839992795	2.502331600058824	decision_social_loss	1.853003800031729	2	right	F	FF001.jpg	FF002.jpg	latino	black
49.22721509996336	2.0058586000232026	ISI	n/a	n/a	n/a	F	FF001.jpg	FF002.jpg	latino	black
51.23313449998386	1.0160318999551237	feedback_social_loss_negative	n/a	n/a	n/a	F	FF001.jpg	FF002.jpg	latino	black
52.24928399990313	3.0003891000524163	ITI	n/a	n/a	n/a	F	FF001.jpg	FF002.jpg	latino	black
55.25812169990968	2.5016605000710115	decision_social_loss	2.168780800071545	7	left	M	MF017.jpg	MF018.jpg	white	latino
57.75994569994509	0.5064179999753833	ISI	n/a	n/a	n/a	M	MF017.jpg	MF018.jpg	white	latino
58.26642189989798	1.0160578000359237	feedback_social_loss_neutral	n/a	n/a	n/a	M	MF017.jpg	MF018.jpg	white	latino
59.28259279998019	2.0004423999926075	ITI	n/a	n/a	n/a	M	MF017.jpg	MF018.jpg	white	latino
61.29137120000087	2.5014709999086335	decision_social_win	1.6528552999952808	7	left	M	MF035.jpg	MF036.jpg	latino	black
63.79301029990893	2.0066652999958023	ISI	n/a	n/a	n/a	M	MF035.jpg	MF036.jpg	latino	black
65.79973309999332	1.016075799940154	feedback_social_win_positive	n/a	n/a	n/a	M	MF035.jpg	MF036.jpg	latino	black
66.81593039992731	5.000400200020522	ITI	n/a	n/a	n/a	M	MF035.jpg	MF036.jpg	latino	black
71.82485369988717	2.5005363000091165	decision_social_win	1.870134900091216	2	right	M	MF029.jpg	MF030.jpg	white	black
74.32555680000223	0.5075553999049589	ISI	n/a	n/a	n/a	M	MF029.jpg	MF030.jpg	white	black
74.83317319990601	1.0159949000226334	feedback_social_win_positive	n/a	n/a	n/a	M	MF029.jpg	MF030.jpg	white	black
75.8492970999796	1.000508299912326	ITI	n/a	n/a	n/a	M	MF029.jpg	MF030.jpg	white	black
76.8584181999322	2.507942800060846	decision_social_loss_MISSED	missed	missed	missed	F	FF015.jpg	FF016.jpg	black	asian
79.36650329991244	0.5000085000647232	ISI	n/a	n/a	n/a	F	FF015.jpg	FF016.jpg	black	asian
79.86656889994629	1.0164127999451011	feedback_social_loss_MISSED	n/a	n/a	n/a	F	FF015.jpg	FF016.jpg	black	asian
80.88314249995165	1.0164348999969661	ITI	n/a	n/a	n/a	F	FF015.jpg	FF016.jpg	black	asian
81.90813099988736	2.502107300097123	decision_social_win	2.036283600027673	7	left	F	FF041.jpg	FF042.jpg	latino	white
84.41040989989415	0.5059759001014754	ISI	n/a	n/a	n/a	F	FF041.jpg	FF042.jpg	latino	white
84.91644369997084	1.0159897999837995	feedback_social_win_positive	n/a	n/a	n/a	F	FF041.jpg	FF042.jpg	latino	white
85.9325525999302	3.000223600072786	ITI	n/a	n/a	n/a	F	FF041.jpg	FF042.jpg	latino	white
88.94292179995682	2.500695199938491	decision_social_loss	1.801534099970013	7	left	F	FF019.jpg	FF020.jpg	latino	asian
91.44378769991454	1.0059728000778705	ISI	n/a	n/a	n/a	F	FF019.jpg	FF020.jpg	latino	asian
92.44981939997524	1.016030399943702	feedback_social_loss_neutral	n/a	n/a	n/a	F	FF019.jpg	FF020.jpg	latino	asian
93.46597819996532	1.0003491999814287	ITI	n/a	n/a	n/a	F	FF019.jpg	FF020.jpg	latino	asian
94.47516049991827	2.5019266000017524	decision_social_win	1.7526577999815345	2	right	M	MF023.jpg	MF024.jpg	black	asian
96.97725669993088	2.005909400060773	ISI	n/a	n/a	n/a	M	MF023.jpg	MF024.jpg	black	asian
98.98322319996078	1.0159052000381052	feedback_social_win_neutral	n/a	n/a	n/a	M	MF023.jpg	MF024.jpg	black	asian
99.99924429995008	2.0003692000173032	ITI	n/a	n/a	n/a	M	MF023.jpg	MF024.jpg	black	asian
102.00811539997812	2.502154999994673	decision_social_win	2.3525837999768555	7	left	F	FF021.jpg	FF022.jpg	black	latino
104.51044719992206	0.5058351000770926	ISI	n/a	n/a	n/a	F	FF021.jpg	FF022.jpg	black	latino
105.01634319999721	1.016106199938804	feedback_social_win_neutral	n/a	n/a	n/a	F	FF021.jpg	FF022.jpg	black	latino
106.03259089996573	3.0001201999839395	ITI	n/a	n/a	n/a	F	FF021.jpg	FF022.jpg	black	latino
109.04125709994696	2.5017962999409065	decision_social_loss	2.152831800049171	7	left	M	MF009.jpg	MF010.jpg	latino	asian
111.54322449991014	0.5064283000538126	ISI	n/a	n/a	n/a	M	MF009.jpg	MF010.jpg	latino	asian
112.04971199994907	1.0160215999931097	feedback_social_loss_negative	n/a	n/a	n/a	M	MF009.jpg	MF010.jpg	latino	asian
113.06585859996267	1.0003852000227198	ITI	n/a	n/a	n/a	M	MF009.jpg	MF010.jpg	latino	asian
114.07480659999419	2.5018720999360085	decision_social_loss	1.836348499986343	2	right	M	MF019.jpg	MF020.jpg	white	latino
116.57685509999283	1.006062899949029	ISI	n/a	n/a	n/a	M	MF019.jpg	MF020.jpg	white	latino
117.58297679992393	1.0160761000588536	feedback_social_loss_neutral	n/a	n/a	n/a	M	MF019.jpg	MF020.jpg	white	latino
118.59918569994625	1.0003881000448018	ITI	n/a	n/a	n/a	M	MF019.jpg	MF020.jpg	white	latino
119.60804530000314	2.502436099923216	decision_social_win	1.9515428999438882	2	right	F	FF039.jpg	FF040.jpg	white	black
122.11065529996995	1.5056071999715641	ISI	n/a	n/a	n/a	F	FF039.jpg	FF040.jpg	white	black
123.61631959991064	1.0160251000197604	feedback_social_win_positive	n/a	n/a	n/a	F	FF039.jpg	FF040.jpg	white	black
124.63246199989226	1.000427499995567	ITI	n/a	n/a	n/a	F	FF039.jpg	FF040.jpg	white	black
125.64155029994436	2.5010664999717847	decision_social_win	1.5355871999636292	2	right	M	MF027.jpg	MF028.jpg	white	black
128.14279059995897	0.5069462000392377	ISI	n/a	n/a	n/a	M	MF027.jpg	MF028.jpg	white	black
128.64979199995287	1.0159308000002056	feedback_social_win_neutral	n/a	n/a	n/a	M	MF027.jpg	MF028.jpg	white	black
129.6658385999035	3.000315700075589	ITI	n/a	n/a	n/a	M	MF027.jpg	MF028.jpg	white	black
132.67460859997664	2.519878500024788	decision_social_loss	2.5193974999710917	2	right	M	MF003.jpg	MF004.jpg	latino	white
135.19463709997945	2.0049237000057474	ISI	n/a	n/a	n/a	M	MF003.jpg	MF004.jpg	latino	white
137.19961839995813	1.0160210999893025	feedback_social_loss_negative	n/a	n/a	n/a	M	MF003.jpg	MF004.jpg	latino	white
138.2157515999861	3.0004330999217927	ITI	n/a	n/a	n/a	M	MF003.jpg	MF004.jpg	latino	white
141.22505349991843	2.5007825000211596	decision_social_win	1.6863238000078127	2	right	M	MF037.jpg	MF038.jpg	asian	latino
143.7260141998995	0.5068927000975236	ISI	n/a	n/a	n/a	M	MF037.jpg	MF038.jpg	asian	latino
144.23296239995398	1.0161185000324622	feedback_social_win_positive	n/a	n/a	n/a	M	MF037.jpg	MF038.jpg	asian	latino
145.24944739998318	1.0002399999648333	ITI	n/a	n/a	n/a	M	MF037.jpg	MF038.jpg	asian	latino
146.2582494999515	2.5015626000240445	decision_social_win	1.5684316999977455	7	left	F	FF031.jpg	FF032.jpg	latino	black
148.75998029997572	1.0062413000268862	ISI	n/a	n/a	n/a	F	FF031.jpg	FF032.jpg	latino	black
149.76627809996717	1.0160499999765307	feedback_social_win_positive	n/a	n/a	n/a	F	FF031.jpg	FF032.jpg	latino	black
150.78244299988728	5.000390300061554	ITI	n/a	n/a	n/a	F	FF031.jpg	FF032.jpg	latino	black
155.79156909999438	2.502091299975291	decision_social_loss	1.6695101999212056	7	left	M	MF005.jpg	MF006.jpg	white	black
158.29383819992654	0.5056990999728441	ISI	n/a	n/a	n/a	M	MF005.jpg	MF006.jpg	white	black
158.79959229996894	1.0160083000082523	feedback_social_loss_negative	n/a	n/a	n/a	M	MF005.jpg	MF006.jpg	white	black
159.81571939995047	3.0004506999393925	ITI	n/a	n/a	n/a	M	MF005.jpg	MF006.jpg	white	black
162.82477339997422	2.501119300024584	decision_social_loss	2.1031844000099227	7	left	F	FF009.jpg	FF010.jpg	asian	white
165.32606669992674	0.506695199990645	ISI	n/a	n/a	n/a	F	FF009.jpg	FF010.jpg	asian	white
165.8328174999915	1.0162028999766335	feedback_social_loss_negative	n/a	n/a	n/a	F	FF009.jpg	FF010.jpg	asian	white
166.84914069995284	1.0004008000250906	ITI	n/a	n/a	n/a	F	FF009.jpg	FF010.jpg	asian	white
167.85812179988716	2.501831900095567	decision_social_loss	1.9517534000333399	2	right	F	FF017.jpg	FF018.jpg	asian	asian
170.360135099967	2.005970099940896	ISI	n/a	n/a	n/a	F	FF017.jpg	FF018.jpg	asian	asian
172.36616199999116	1.0161215999396518	feedback_social_loss_neutral	n/a	n/a	n/a	F	FF017.jpg	FF018.jpg	asian	asian
173.38243050000165	1.0003228998975828	ITI	n/a	n/a	n/a	F	FF017.jpg	FF018.jpg	asian	asian
174.39190209994558	2.502370100002736	decision_social_loss	1.567983999964781	2	right	M	MF001.jpg	MF002.jpg	black	asian
176.89445849996991	0.5051612999523059	ISI	n/a	n/a	n/a	M	MF001.jpg	MF002.jpg	black	asian
177.3996813999256	1.0159609999973327	feedback_social_loss_negative	n/a	n/a	n/a	M	MF001.jpg	MF002.jpg	black	asian
178.41580959991552	2.0004068000707775	ITI	n/a	n/a	n/a	M	MF001.jpg	MF002.jpg	black	asian
180.4251721999608	2.501196500030346	decision_social_win	1.452822000021115	2	right	M	MF033.jpg	MF034.jpg	white	latino
182.92655179998837	0.5062852000119165	ISI	n/a	n/a	n/a	M	MF033.jpg	MF034.jpg	white	latino
183.43290249991696	1.0160860000178218	feedback_social_win_positive	n/a	n/a	n/a	M	MF033.jpg	MF034.jpg	white	latino
184.44910839991644	1.000344300060533	ITI	n/a	n/a	n/a	M	MF033.jpg	MF034.jpg	white	latino
185.45805649994873	2.500687299994752	decision_social_loss	1.6029999000020325	7	left	F	FF013.jpg	FF014.jpg	white	black
187.9589211998973	2.0070416000671685	ISI	n/a	n/a	n/a	F	FF013.jpg	FF014.jpg	white	black
189.96601949993055	1.0162590000545606	feedback_social_loss_negative	n/a	n/a	n/a	F	FF013.jpg	FF014.jpg	white	black
190.98239939997438	1.0003612999571487	ITI	n/a	n/a	n/a	F	FF013.jpg	FF014.jpg	white	black
191.99180829990655	2.5018662000074983	decision_social_win	1.9847442000173032	2	right	F	FF027.jpg	FF028.jpg	latino	asian
194.49385489989072	1.0056255001109093	ISI	n/a	n/a	n/a	F	FF027.jpg	FF028.jpg	latino	asian
195.49953499995172	1.0159982000477612	feedback_social_win_neutral	n/a	n/a	n/a	F	FF027.jpg	FF028.jpg	latino	asian
196.515653999988	2.0004568999866024	ITI	n/a	n/a	n/a	F	FF027.jpg	FF028.jpg	latino	asian
198.52457219990902	2.5019802000606433	decision_social_win	1.9518710999982432	2	right	F	FF037.jpg	FF038.jpg	latino	latino
201.02673509996384	0.5059908999828622	ISI	n/a	n/a	n/a	F	FF037.jpg	FF038.jpg	latino	latino
201.53278339991812	1.0160748000489548	feedback_social_win_positive	n/a	n/a	n/a	F	FF037.jpg	FF038.jpg	latino	latino
202.54898649989627	4.000345800071955	ITI	n/a	n/a	n/a	F	FF037.jpg	FF038.jpg	latino	latino
206.55824229994323	2.5006335000507534	decision_social_win	1.9685896000592038	2	right	F	FF035.jpg	FF036.jpg	latino	black
209.0590552999638	0.5072533999336883	ISI	n/a	n/a	n/a	F	FF035.jpg	FF036.jpg	latino	black
209.56636359996628	1.015838099992834	feedback_social_win_positive	n/a	n/a	n/a	F	FF035.jpg	FF036.jpg	latino	black
210.5823279999895	1.0004155999049544	ITI	n/a	n/a	n/a	F	FF035.jpg	FF036.jpg	latino	black
211.59175579994917	2.502207300043665	decision_social_win	1.5022085000528023	2	right	F	FF029.jpg	FF030.jpg	asian	white
214.09414770000149	0.5052844999590889	ISI	n/a	n/a	n/a	F	FF029.jpg	FF030.jpg	asian	white
214.59949569997843	1.0160546000115573	feedback_social_win_positive	n/a	n/a	n/a	F	FF029.jpg	FF030.jpg	asian	white
215.6157729999395	1.0003697000211105	ITI	n/a	n/a	n/a	F	FF029.jpg	FF030.jpg	asian	white
216.62498510000296	2.5019632999319583	decision_social_loss	2.1847605999791995	2	right	F	FF005.jpg	FF006.jpg	white	asian
219.12713089992758	1.5056449000257999	ISI	n/a	n/a	n/a	F	FF005.jpg	FF006.jpg	white	asian
220.6328328999225	1.0161459000082687	feedback_social_loss_negative	n/a	n/a	n/a	F	FF005.jpg	FF006.jpg	white	asian
221.6491062999703	5.000377899967134	ITI	n/a	n/a	n/a	F	FF005.jpg	FF006.jpg	white	asian
226.65810589992907	2.500560100073926	decision_social_loss	1.8684524999698624	7	left	M	MF011.jpg	MF012.jpg	latino	black
229.15885049989447	0.5073567000217736	ISI	n/a	n/a	n/a	M	MF011.jpg	MF012.jpg	latino	black
229.6662639999995	1.0159854999510571	feedback_social_loss_negative	n/a	n/a	n/a	M	MF011.jpg	MF012.jpg	latino	black
230.68240319995675	4.000315599958412	ITI	n/a	n/a	n/a	M	MF011.jpg	MF012.jpg	latino	black
234.69211339997128	2.500637899967842	decision_social_loss	1.4343436999479309	7	left	M	MF021.jpg	MF022.jpg	black	latino
237.1929373999592	0.5065844999626279	ISI	n/a	n/a	n/a	M	MF021.jpg	MF022.jpg	black	latino
237.69957729999442	1.0159260999644175	feedback_social_loss_neutral	n/a	n/a	n/a	M	MF021.jpg	MF022.jpg	black	latino
238.71562989999074	1.0003310999600217	ITI	n/a	n/a	n/a	M	MF021.jpg	MF022.jpg	black	latino
239.7252716999501	2.5005370000144467	decision_social_loss	1.7686517999973148	2	right	F	FF003.jpg	FF004.jpg	black	white
242.22600109991618	1.5068277000682428	ISI	n/a	n/a	n/a	F	FF003.jpg	FF004.jpg	black	white
243.73290719999932	1.0160009999526665	feedback_social_loss_negative	n/a	n/a	n/a	F	FF003.jpg	FF004.jpg	black	white
244.7490351999877	4.0002172999084	ITI	n/a	n/a	n/a	F	FF003.jpg	FF004.jpg	black	white
248.75814989989158	2.5006729000015184	decision_social_win	1.3850312000140548	7	left	F	FF033.jpg	FF034.jpg	black	white
251.25901129993144	1.507103499956429	ISI	n/a	n/a	n/a	F	FF033.jpg	FF034.jpg	black	white
252.76617199997418	1.0159691999433562	feedback_social_win_positive	n/a	n/a	n/a	F	FF033.jpg	FF034.jpg	black	white
253.78227159997914	3.00037829997018	ITI	n/a	n/a	n/a	F	FF033.jpg	FF034.jpg	black	white
256.79174689995125	2.5007332999957725	decision_social_loss	1.668261699960567	2	right	M	MF013.jpg	MF014.jpg	latino	asian
259.29268299997784	0.5065993999596685	ISI	n/a	n/a	n/a	M	MF013.jpg	MF014.jpg	latino	asian
259.79933769989293	1.0160640000831336	feedback_social_loss_negative	n/a	n/a	n/a	M	MF013.jpg	MF014.jpg	latino	asian
260.8155332999304	2.0006295000202954	ITI	n/a	n/a	n/a	M	MF013.jpg	MF014.jpg	latino	asian
262.8250432999339	2.5010877000167966	decision_social_loss	1.9696776999626309	7	left	M	MF007.jpg	MF008.jpg	asian	white
265.32633209996857	2.006258099921979	ISI	n/a	n/a	n/a	M	MF007.jpg	MF008.jpg	asian	white
267.3326448999578	1.016162500018254	feedback_social_loss_negative	n/a	n/a	n/a	M	MF007.jpg	MF008.jpg	asian	white
268.34894419997	4.000335999997333	ITI	n/a	n/a	n/a	M	MF007.jpg	MF008.jpg	asian	white
272.3581783999689	2.5013571999734268	decision_social_loss	2.2685537999495864	2	right	F	FF007.jpg	FF008.jpg	asian	black
274.8597309999168	0.5062504999805242	ISI	n/a	n/a	n/a	F	FF007.jpg	FF008.jpg	asian	black
275.3660389999859	1.0159983999328688	feedback_social_loss_negative	n/a	n/a	n/a	F	FF007.jpg	FF008.jpg	asian	black
276.38221879990306	3.000394100090489	ITI	n/a	n/a	n/a	F	FF007.jpg	FF008.jpg	asian	black
279.3914802999934	2.5013561999658123	decision_social_win	1.7355586999328807	2	right	F	FF025.jpg	FF026.jpg	black	latino
281.8930266998941	0.5062616000650451	ISI	n/a	n/a	n/a	F	FF025.jpg	FF026.jpg	black	latino
282.39934339991305	1.016014900058508	feedback_social_win_neutral	n/a	n/a	n/a	F	FF025.jpg	FF026.jpg	black	latino
283.4154897999251	3.0003339999821037	ITI	n/a	n/a	n/a	F	FF025.jpg	FF026.jpg	black	latino
286.4245366998948	2.5081216000253335	decision_social_win_MISSED	missed	missed	missed	M	MF025.jpg	MF026.jpg	white	asian
288.932803099975	0.5018019999843091	ISI	0.1332224999787286	7	left	M	MF025.jpg	MF026.jpg	white	asian
289.43466549995355	1.0138229000149295	feedback_social_win_MISSED	n/a	n/a	n/a	M	MF025.jpg	MF026.jpg	white	asian
290.4486241999548	6.000599800026976	ITI	n/a	n/a	n/a	M	MF025.jpg	MF026.jpg	white	asian
