onset	duration	trial_type	rt	resp	selection	gender	image	image_type
0.0	1.0	ISI	n/a	n/a	n/a	n/a	n/a	n/a
1.0187576999887824	2.7512563000200316	decision_social	1.8428519000299275	7	predict_neutral	M	MF012.jpg	black
3.7703016999876127	1.5129359000129625	ISI	n/a	n/a	n/a	M	MF012.jpg	black
5.2867476000101306	2.752054499986116	decision_social	2.0079991999664344	4	recall_neutral	F	FF042.jpg	white
8.03911050001625	6.500466800003778	ISI	0.09456359996693209	4	recall_neutral	F	FF042.jpg	white
14.543119899986777	2.7511882000253536	decision_social	2.417736900039017	2	recall_win	M	MF007.jpg	asian
17.29462030000286	1.0050549000152387	ISI	n/a	n/a	n/a	M	MF007.jpg	asian
18.303013600001577	2.7515774000203237	decision_social	1.92339670000365	2	recall_win	M	MF033.jpg	white
21.054903600015678	6.011619900004007	ISI	n/a	n/a	n/a	M	MF033.jpg	white
27.069872300024144	2.75218660000246	decision_social	1.3750403999583796	2	recall_win	M	MF023.jpg	black
29.822351299982984	5.510631200042553	ISI	n/a	n/a	n/a	M	MF023.jpg	black
35.33640829997603	2.750252000056207	decision_social	1.6411844000103883	7	predict_neutral	F	FF002.jpg	black
38.08697469998151	1.0126576000475325	ISI	n/a	n/a	n/a	F	FF002.jpg	black
39.10303739999654	2.750822899979539	decision_social	1.6413014000281692	7	predict_neutral	F	FF005.jpg	white
41.85415790003026	3.7621263999608345	ISI	n/a	n/a	n/a	F	FF005.jpg	white
45.61964290001197	2.7515860999701545	decision_social	2.323921600007452	7	predict_neutral	M	MF013.jpg	latino
48.371555000019725	3.011347299965564	ISI	n/a	n/a	n/a	M	MF013.jpg	latino
51.386312199989334	2.75125620001927	decision_social	1.674301600025501	2	recall_win	M	MF039.jpg	black
54.13788240001304	2.2618868999998085	ISI	n/a	n/a	n/a	M	MF039.jpg	black
56.403202300018165	2.750296199985314	decision_social	1.3404293999774382	2	recall_win	M	MF028.jpg	black
59.15389180002967	3.012352699995972	ISI	n/a	n/a	n/a	M	MF028.jpg	black
62.16962000000058	2.7521572000114247	decision_social	1.807180600007996	8	predict_loss	F	FF040.jpg	black
64.92209429998184	3.010805900034029	ISI	n/a	n/a	n/a	F	FF040.jpg	black
67.9362756999908	2.750530200020876	decision_social	1.6412055999971926	7	predict_neutral	F	FF031.jpg	latino
70.68712389998836	3.5124306000070646	ISI	n/a	n/a	n/a	F	FF031.jpg	latino
74.20309399999678	2.7510581000242382	decision_social	1.258006900025066	7	predict_neutral	M	MF014.jpg	asian
76.9544639000087	1.7617427000077441	ISI	n/a	n/a	n/a	M	MF014.jpg	asian
78.71963609999511	2.751873200002592	decision_social	1.5071159999934025	2	recall_win	F	FF015.jpg	black
81.47182759997668	2.26103970000986	ISI	n/a	n/a	n/a	F	FF015.jpg	black
83.73632289998932	2.7511371000437066	decision_social	1.3739431999856606	2	recall_win	M	MF011.jpg	latino
86.48777429998154	4.511941800010391	ISI	n/a	n/a	n/a	M	MF011.jpg	latino
91.00333219999447	2.7519928999827243	decision_social	1.5074005000060424	7	predict_neutral	M	MF017.jpg	white
93.75563510000939	1.7605280000134371	ISI	n/a	n/a	n/a	M	MF017.jpg	white
95.51966649998212	2.75053930003196	decision_social	2.173829800041858	7	predict_neutral	F	FF007.jpg	asian
98.27051810000557	1.0122673999867402	ISI	n/a	n/a	n/a	F	FF007.jpg	asian
99.28621619998012	2.7505099000409245	decision_social	1.2399214000324719	9	predict_win	M	MF006.jpg	black
102.03707790002227	1.0123959999764338	ISI	n/a	n/a	n/a	M	MF006.jpg	black
103.05296599998837	2.75063379999483	decision_social	1.2908996000187472	4	recall_neutral	M	MF022.jpg	latino
105.8039213999873	2.7622056000400335	ISI	n/a	n/a	n/a	M	MF022.jpg	latino
108.56961399997817	2.7518588000093587	decision_social	1.8906102000037208	7	predict_neutral	F	FF041.jpg	latino
111.32179820002057	2.0109830999863334	ISI	n/a	n/a	n/a	F	FF041.jpg	latino
113.33633409999311	2.751113200036343	decision_social	1.3233038000180386	4	recall_neutral	F	FF026.jpg	latino
116.08777749998262	3.26166140002897	ISI	n/a	n/a	n/a	F	FF026.jpg	latino
119.35291930002859	2.750484099960886	decision_social	1.474210399959702	2	recall_win	M	MF036.jpg	black
122.10372469999129	4.7625551000237465	ISI	n/a	n/a	n/a	M	MF036.jpg	black
126.87009879999096	2.7506198000046425	decision_social	1.5246287999907508	7	predict_neutral	F	FF022.jpg	latino
129.62104599998565	1.7618915000348352	ISI	n/a	n/a	n/a	F	FF022.jpg	latino
131.3865141000133	2.750824599992484	decision_social	1.2566356000024825	2	recall_win	M	MF032.jpg	white
134.13766320003197	2.511732499988284	ISI	n/a	n/a	n/a	M	MF032.jpg	white
136.6529392999946	2.7517440000083297	decision_social	1.0738377000088803	2	recall_win	M	MF001.jpg	black
139.40501679998124	2.7610343000269495	ISI	n/a	n/a	n/a	M	MF001.jpg	black
142.1697867999901	2.751739700033795	decision_social	2.4897319999872707	7	predict_neutral	M	MF020.jpg	latino
144.92185709998012	6.511033700022381	ISI	n/a	n/a	n/a	M	MF020.jpg	latino
151.4365739999921	2.7518880999996327	decision_social	1.4402839000103995	7	predict_neutral	M	MF005.jpg	white
154.18879889999516	1.5105439000180922	ISI	n/a	n/a	n/a	M	MF005.jpg	white
155.70288270001765	2.75162240001373	decision_social	1.6736307999817654	2	recall_win	M	MF034.jpg	latino
158.45482929999707	1.2613708000280894	ISI	n/a	n/a	n/a	M	MF034.jpg	latino
159.71972629998345	2.7519544000388123	decision_social	1.1574450000189245	7	predict_neutral	F	FF009.jpg	asian
162.4720146000036	1.0106401999946684	ISI	n/a	n/a	n/a	F	FF009.jpg	asian
163.48631940002088	2.750424399971962	decision_social	1.073964299983345	7	predict_neutral	F	FF038.jpg	latino
166.23707849998027	1.2622354000341147	ISI	n/a	n/a	n/a	F	FF038.jpg	latino
167.502984700026	2.752061999985017	decision_social	1.2905044999788515	4	recall_neutral	F	FF029.jpg	asian
170.25536680000369	1.2608038000180386	ISI	n/a	n/a	n/a	F	FF029.jpg	asian
171.51974279998103	2.7522338000126183	decision_social	1.9906957000494003	2	recall_win	M	MF035.jpg	latino
174.27232310001273	2.7602701999712735	ISI	n/a	n/a	n/a	M	MF035.jpg	latino
177.03619279997656	2.7521796000073664	decision_social	2.1564282000181265	2	recall_win	M	MF016.jpg	asian
179.7887012999854	1.2607416000100784	ISI	n/a	n/a	n/a	M	MF016.jpg	asian
181.05307179997908	2.7502811000449583	decision_social	2.1399375000037253	3	recall_loss	M	MF041.jpg	white
183.8036848999909	1.262213200039696	ISI	n/a	n/a	n/a	M	MF041.jpg	white
185.06966109998757	2.750822300033178	decision_social	2.4398770999978296	4	recall_neutral	M	MF008.jpg	white
187.82079060003161	2.761792199977208	ISI	n/a	n/a	n/a	M	MF008.jpg	white
190.5862009000266	2.751208899950143	decision_social	1.0740810999996029	4	recall_neutral	M	MF029.jpg	white
193.3377873999998	4.011465499992482	ISI	n/a	n/a	n/a	M	MF029.jpg	white
197.35295929998392	2.751512300048489	decision_social	1.473453700018581	2	recall_win	F	FF008.jpg	black
200.10481230000732	2.011075799993705	ISI	n/a	n/a	n/a	F	FF008.jpg	black
202.11954169999808	2.7519527000258677	decision_social	1.4743887999793515	7	predict_neutral	M	MF010.jpg	asian
204.87183530000038	1.260909200005699	ISI	n/a	n/a	n/a	M	MF010.jpg	asian
206.13640870002564	2.750959299970418	decision_social	0.9911777999950573	8	predict_loss	M	MF004.jpg	white
208.8877098999801	6.261484700022265	ISI	n/a	n/a	n/a	M	MF004.jpg	white
215.1528436000226	2.7518004999728873	decision_social	2.48966699995799	3	recall_loss	F	FF012.jpg	latino
217.90498799999477	3.2608316999976523	ISI	n/a	n/a	n/a	F	FF012.jpg	latino
221.1694659999921	2.7520100999972783	decision_social	0.9907300000195391	3	recall_loss	F	FF039.jpg	white
223.9218208999955	6.510642600012943	ISI	n/a	n/a	n/a	F	FF039.jpg	white
230.4362218999886	2.751379600027576	decision_social	1.024777400016319	3	recall_loss	M	MF002.jpg	asian
233.18794879998313	5.51116059999913	ISI	n/a	n/a	n/a	M	MF002.jpg	asian
238.70302080002148	2.750303699984215	decision_social	1.1414778999751434	2	recall_win	M	MF018.jpg	latino
241.45367289998103	1.2620659000240266	ISI	n/a	n/a	n/a	M	MF018.jpg	latino
242.719470800017	2.7508419000077993	decision_social	1.0235383000108413	4	recall_neutral	M	MF040.jpg	asian
245.47066270001233	1.5117782999877818	ISI	n/a	n/a	n/a	M	MF040.jpg	asian
246.9861482999986	2.751892799977213	decision_social	1.74035019997973	2	recall_win	F	FF018.jpg	asian
249.7383811000036	1.260705999971833	ISI	n/a	n/a	n/a	F	FF018.jpg	asian
251.0028653999907	2.7504507999983616	decision_social	1.3572042000014335	4	recall_neutral	F	FF024.jpg	asian
253.7536734000314	1.012067899981048	ISI	n/a	n/a	n/a	F	FF024.jpg	asian
254.76948850002373	2.751104299968574	decision_social	1.158043799980078	2	recall_win	F	FF032.jpg	black
257.52093990001595	1.0114649999886751	ISI	n/a	n/a	n/a	F	FF032.jpg	black
258.53616379998857	2.7514476000214927	decision_social	1.9062706000404432	8	predict_loss	F	FF034.jpg	white
261.2879827999859	1.2612739999894984	ISI	n/a	n/a	n/a	F	FF034.jpg	white
262.5531753000105	2.751363500021398	decision_social	1.0901457999716513	8	predict_loss	M	MF037.jpg	asian
265.3049065999803	3.2607699000509456	ISI	n/a	n/a	n/a	M	MF037.jpg	asian
268.56952349998755	2.750829300028272	decision_social	0.9564562999876216	2	recall_win	M	MF021.jpg	black
271.3207133000251	1.2615878999931738	ISI	n/a	n/a	n/a	M	MF021.jpg	black
272.5862167000305	2.7520752999698743	decision_social	1.9731473999563605	4	recall_neutral	F	FF025.jpg	black
275.3386521000066	5.0105585000128485	ISI	n/a	n/a	n/a	F	FF025.jpg	black
280.35317580000265	2.752053599979263	decision_social	0.8073497000150383	4	recall_neutral	F	FF013.jpg	white
283.1055801999755	1.7602755000116304	ISI	n/a	n/a	n/a	F	FF013.jpg	white
284.8696436000173	2.75164659996517	decision_social	1.2068021000013687	2	recall_win	F	FF037.jpg	latino
287.62167600000976	1.0108091000001878	ISI	n/a	n/a	n/a	F	FF037.jpg	latino
288.63629280001624	2.7522895999718457	decision_social	1.52312189998338	4	recall_neutral	F	FF011.jpg	white
291.3889403999783	2.0100261000334285	ISI	n/a	n/a	n/a	F	FF011.jpg	white
293.40276279998943	2.7505202000029385	decision_social	1.0566009000176564	4	recall_neutral	F	FF028.jpg	asian
296.1536412999849	4.0119396999944	ISI	n/a	n/a	n/a	F	FF028.jpg	asian
300.1694437999977	2.750626299995929	decision_social	2.207914900034666	7	predict_neutral	F	FF003.jpg	black
302.92041979997884	2.01181480003288	ISI	n/a	n/a	n/a	F	FF003.jpg	black
304.9360676999786	2.750224800023716	decision_social	1.490342800039798	8	predict_loss	F	FF036.jpg	black
307.6866447000066	2.7622699000057764	ISI	n/a	n/a	n/a	F	FF036.jpg	black
310.4528783999849	2.750381199992262	decision_social	1.5565308000077493	9	predict_win	F	FF020.jpg	asian
313.20362089999253	3.0119123000185937	ISI	n/a	n/a	n/a	F	FF020.jpg	asian
316.2194503999781	2.7508160000434145	decision_social	1.5396754000103101	8	predict_loss	F	FF021.jpg	black
318.9706263000262	1.5117953000008129	ISI	n/a	n/a	n/a	F	FF021.jpg	black
320.4862853999948	2.7509329000022262	decision_social	1.3901073000160977	9	predict_win	F	FF014.jpg	black
323.2375790000078	5.7617713999934494	ISI	n/a	n/a	n/a	F	FF014.jpg	black
329.0031960000051	2.751293200009968	decision_social	1.6562934999819845	4	recall_neutral	M	MF042.jpg	asian
331.7548534999951	2.7606282000197098	ISI	n/a	n/a	n/a	M	MF042.jpg	asian
334.51933350000763	2.751987600000575	decision_social	1.6227836000034586	2	recall_win	M	MF009.jpg	latino
337.27167849999387	1.0106460000388324	ISI	n/a	n/a	n/a	M	MF009.jpg	latino
338.286207200028	2.7628267999971285	decision_social_MISSED	missed	missed	missed	F	FF004.jpg	white
341.0493357999949	3.7505099999834783	ISI	0.1505182000109926	4	recall_neutral	F	FF004.jpg	white
344.80385379999643	2.7505207000067458	decision_social	1.438469399989117	2	recall_win	F	FF019.jpg	latino
347.554741800006	1.510738399985712	ISI	n/a	n/a	n/a	F	FF019.jpg	latino
349.0694031000021	2.7521163999917917	decision_social	1.2070267000235617	4	recall_neutral	M	MF015.jpg	black
351.8218873000005	1.5104241999797523	ISI	n/a	n/a	n/a	M	MF015.jpg	black
353.3362987000146	2.7511345999664627	decision_social	0.972535600012634	4	recall_neutral	F	FF030.jpg	white
356.08779969997704	1.5109809000277892	ISI	n/a	n/a	n/a	F	FF030.jpg	white
357.60268060001545	2.750683999969624	decision_social	1.0405557999620214	2	recall_win	F	FF006.jpg	asian
360.35373520001303	3.76169299997855	ISI	n/a	n/a	n/a	F	FF006.jpg	asian
364.11933120002504	2.7506545999785885	decision_social	1.756073699973058	7	predict_neutral	M	MF031.jpg	latino
366.870364100032	5.76170249999268	ISI	n/a	n/a	n/a	M	MF031.jpg	latino
372.635986600013	2.7502461000112817	decision_social	0.8233632000046782	8	predict_loss	F	FF017.jpg	asian
375.38659489998827	2.512286600016523	ISI	n/a	n/a	n/a	F	FF017.jpg	asian
377.9028134000255	2.750407599960454	decision_social	0.8563994999858551	8	predict_loss	F	FF001.jpg	latino
380.65359170001466	1.0117464999784715	ISI	n/a	n/a	n/a	F	FF001.jpg	latino
381.66932719998294	2.751132100005634	decision_social	1.0071737000253052	8	predict_loss	F	FF010.jpg	white
384.4208327999804	6.261180500034243	ISI	n/a	n/a	n/a	F	FF010.jpg	white
390.6859695999883	2.7515084000187926	decision_social	1.7399039000156336	7	predict_neutral	F	FF027.jpg	latino
393.4379018000327	5.260951899981592	ISI	n/a	n/a	n/a	F	FF027.jpg	latino
398.70279840001604	2.7513632999616675	decision_social	1.2226000999798998	2	recall_win	M	MF019.jpg	white
401.45452690002276	2.010788399958983	ISI	n/a	n/a	n/a	M	MF019.jpg	white
403.4694035000284	2.750822399975732	decision_social	2.1570744999917224	8	predict_loss	F	FF035.jpg	latino
406.2205913999933	2.511334699986037	ISI	n/a	n/a	n/a	F	FF035.jpg	latino
408.73601569997845	2.7517407000414096	decision_social	0.9067948000156321	2	recall_win	M	MF027.jpg	white
411.48811909998767	3.0104913000250235	ISI	n/a	n/a	n/a	M	MF027.jpg	white
414.5027865000302	2.750610399991274	decision_social	0.8735438999719918	2	recall_win	M	MF003.jpg	latino
417.25377549999394	3.761456399981398	ISI	n/a	n/a	n/a	M	MF003.jpg	latino
421.0193149999832	2.7518605000223033	decision_social	1.7412138000363484	7	predict_neutral	M	MF026.jpg	asian
423.77155509998556	5.760344100010116	ISI	n/a	n/a	n/a	M	MF026.jpg	asian
429.53594390000217	2.7512123999767937	decision_social	1.4064766999799758	2	recall_win	F	FF016.jpg	asian
432.2875250999932	1.0109937000088394	ISI	n/a	n/a	n/a	F	FF016.jpg	asian
433.3025862000068	2.7505234999698587	decision_social	1.5902224999736063	7	predict_neutral	M	MF024.jpg	asian
436.05348090000916	2.261725699994713	ISI	n/a	n/a	n/a	M	MF024.jpg	asian
438.3192552999826	2.7511533999932	decision_social	1.089506899996195	2	recall_win	M	MF030.jpg	black
441.0707920999848	2.2610592000419274	ISI	n/a	n/a	n/a	M	MF030.jpg	black
443.3359080000082	2.7514912000042386	decision_social	1.7575381000060588	8	predict_loss	F	FF023.jpg	white
446.08776710001985	3.76073360000737	ISI	n/a	n/a	n/a	F	FF023.jpg	white
449.85257089999504	2.751567500003148	decision_social	2.2398374000331387	9	predict_win	M	MF038.jpg	latino
452.6045282999985	1.7606279000174254	ISI	n/a	n/a	n/a	M	MF038.jpg	latino
454.36937640002	2.7507832999690436	decision_social	1.839746599958744	2	recall_win	M	MF025.jpg	white
457.12054849998094	2.011259799997788	ISI	n/a	n/a	n/a	M	MF025.jpg	white
459.1359743999783	2.752137500036042	decision_social	1.7894521999987774	2	recall_win	F	FF033.jpg	black
461.8884896999807	2.510163100028876	ISI	n/a	n/a	n/a	F	FF033.jpg	black
