onset	duration	trial_type	rt	resp	selection	gender	image	image_type
0.0	1.0	ISI	n/a	n/a	n/a	n/a	n/a	n/a
1.0199561999179423	2.7504515000618994	decision_social	2.114583299960941	3	recall_loss	M	FF001.jpg	latino
3.770566799910739	1.012622700072825	ISI	n/a	n/a	n/a	M	FF001.jpg	latino
4.786416899878532	2.830432200105861	decision_social	2.830126600107178	3	recall_loss	M	FF002.jpg	black
7.616972499992698	2.5160462998319417	ISI	n/a	n/a	n/a	M	FF002.jpg	black
10.13628669991158	2.8474622999783605	decision_social	2.847150200046599	8	predict_loss	F	FF003.jpg	black
12.983875799924135	2.5158200999721885	ISI	n/a	n/a	n/a	F	FF003.jpg	black
15.50291829998605	2.7521062998566777	decision_social	1.8307701000012457	2	recall_win	F	FF004.jpg	white
18.25516699999571	1.2615615997929126	ISI	n/a	n/a	n/a	F	FF004.jpg	white
19.519932399969548	2.751640599919483	decision_social	1.9970539999194443	4	recall_neutral	F	FF005.jpg	white
22.27171349991113	6.511353499954566	ISI	n/a	n/a	n/a	F	FF005.jpg	white
28.7862862998154	2.751135600032285	decision_social	2.4813167999964207	2	recall_win	F	FF006.jpg	asian
31.537557799834758	1.0121593000367284	ISI	n/a	n/a	n/a	F	FF006.jpg	asian
32.552962199784815	2.763359400210902	decision_social_MISSED	missed	missed	missed	M	FF007.jpg	asian
35.316431399900466	1.7500698000658303	ISI	0.28378390008583665	3	recall_loss	M	FF007.jpg	asian
37.069720999803394	2.750955000054091	decision_social	2.598063200013712	9	predict_win	F	FF008.jpg	black
39.820816999999806	2.0121549000032246	ISI	n/a	n/a	n/a	F	FF008.jpg	black
41.836228699889034	2.7521363999694586	decision_social	1.6650487000588328	2	recall_win	M	FF009.jpg	asian
44.58851259993389	3.0111595999915153	ISI	n/a	n/a	n/a	M	FF009.jpg	asian
47.60294759995304	2.751331700012088	decision_social	1.8975585999432951	3	recall_loss	F	FF010.jpg	white
50.35442399978638	3.7618471002206206	ISI	n/a	n/a	n/a	F	FF010.jpg	white
54.11963929980993	2.7511524001602083	decision_social	2.364336600061506	3	recall_loss	F	FF011.jpg	white
56.87093979981728	1.0121129001490772	ISI	n/a	n/a	n/a	F	FF011.jpg	white
57.88635819987394	2.751010000007227	decision_social	2.1649667001329362	4	recall_neutral	M	FF012.jpg	latino
60.63751699985005	4.0121913000475615	ISI	n/a	n/a	n/a	M	FF012.jpg	latino
64.65296919993125	2.7507521000225097	decision_social	2.5134334000758827	9	predict_win	F	FF013.jpg	white
67.40387139981613	2.01222090004012	ISI	n/a	n/a	n/a	F	FF013.jpg	white
69.41941169998609	2.8140765998978168	decision_social	2.8137677998747677	4	recall_neutral	M	FF014.jpg	black
72.23362549999729	1.0161556999664754	ISI	n/a	n/a	n/a	M	FF014.jpg	black
73.2532541998662	2.764748200075701	decision_social	2.764443299965933	8	predict_loss	F	FF015.jpg	black
76.01813489990309	5.514851700048894	ISI	n/a	n/a	n/a	F	FF015.jpg	black
81.53630009992048	2.7512721999082714	decision_social	2.0800834998954087	2	recall_win	M	FF016.jpg	asian
84.28772469982505	2.01174550014548	ISI	n/a	n/a	n/a	M	FF016.jpg	asian
86.3029058999382	2.750610299874097	decision_social	2.4815745998639613	3	recall_loss	M	FF017.jpg	asian
89.05366969993338	1.2625553000252694	ISI	n/a	n/a	n/a	M	FF017.jpg	asian
90.3198987999931	2.750553799793124	decision_social	2.0149724998045713	8	predict_loss	F	FF018.jpg	asian
93.07061149994843	4.512221399927512	ISI	n/a	n/a	n/a	F	FF018.jpg	asian
97.58616139995866	2.7510351999662817	decision_social	2.580509699881077	8	predict_loss	M	FF019.jpg	latino
100.33735419996083	2.012224599951878	ISI	n/a	n/a	n/a	M	FF019.jpg	latino
102.3533305998426	3.2312489000614733	decision_social	3.230968400137499	4	recall_neutral	M	FF020.jpg	asian
105.58472069981508	5.514853000175208	ISI	n/a	n/a	n/a	M	FF020.jpg	asian
111.10288249980658	2.7508670000825077	decision_social	2.4306537001393735	7	predict_neutral	F	FF021.jpg	black
113.85390399978496	3.0122980000451207	ISI	n/a	n/a	n/a	F	FF021.jpg	black
116.86954759992659	2.7517524999566376	decision_social	1.8146703999955207	2	recall_win	F	FF022.jpg	latino
119.6214574999176	2.761442600050941	ISI	n/a	n/a	n/a	F	FF022.jpg	latino
122.38622329989448	2.7522843000479043	decision_social	2.1976344001013786	8	predict_loss	F	FF023.jpg	white
125.13866649987176	3.010782199911773	ISI	n/a	n/a	n/a	F	FF023.jpg	white
128.15278149978258	3.131035900209099	decision_social	3.1307347000110894	9	predict_win	F	FF024.jpg	asian
131.28396129980683	1.515459000132978	ISI	n/a	n/a	n/a	F	FF024.jpg	asian
132.80282569979317	2.7988032000139356	decision_social	2.798521200194955	3	recall_loss	M	FF025.jpg	black
135.60177679988556	1.2643854999914765	ISI	n/a	n/a	n/a	M	FF025.jpg	black
136.86954439990222	2.751984399976209	decision_social	2.030031400034204	8	predict_loss	M	FF026.jpg	latino
139.62169769988395	3.2610559000167996	ISI	n/a	n/a	n/a	M	FF026.jpg	latino
142.88666639989242	2.7518050998914987	decision_social	1.9636750998906791	2	recall_win	F	FF027.jpg	latino
145.63864139979705	6.011030800174922	ISI	n/a	n/a	n/a	F	FF027.jpg	latino
151.65311319986358	2.763839100021869	decision_social	2.763534100027755	2	recall_win	F	FF028.jpg	asian
154.4171006998513	1.5157030001282692	ISI	n/a	n/a	n/a	F	FF028.jpg	asian
155.93627889989875	3.1147103998810053	decision_social	3.114401600090787	3	recall_loss	M	FF029.jpg	asian
159.0511387998704	6.264994600089267	ISI	n/a	n/a	n/a	M	FF029.jpg	asian
165.31952039990574	2.7513542000669986	decision_social	2.314008600078523	8	predict_loss	F	FF030.jpg	white
168.07104189996608	1.5115496998187155	ISI	n/a	n/a	n/a	F	FF030.jpg	white
169.58614719985053	3.181141800014302	decision_social	3.180824999930337	9	predict_win	M	FF031.jpg	latino
172.76745329983532	3.7652781000360847	ISI	n/a	n/a	n/a	M	FF031.jpg	latino
176.53622819995508	2.751200799830258	decision_social	2.348210799973458	4	recall_neutral	F	FF032.jpg	black
179.28760029980913	1.0117085999809206	ISI	n/a	n/a	n/a	F	FF032.jpg	black
180.3026952999644	2.751850599888712	decision_social	2.497965899994597	2	recall_win	F	FF033.jpg	black
183.05472119990736	5.261360100004822	ISI	n/a	n/a	n/a	F	FF033.jpg	black
188.31946119992062	2.751040899893269	decision_social	2.430301900021732	8	predict_loss	M	FF034.jpg	white
191.07069079997018	1.2620200000237674	ISI	n/a	n/a	n/a	M	FF034.jpg	white
192.33613219996914	2.7806678998749703	decision_social	2.780357399955392	7	predict_neutral	F	FF035.jpg	latino
195.11696119979024	1.5156690999865532	ISI	n/a	n/a	n/a	F	FF035.jpg	latino
196.63617690000683	2.750539999920875	decision_social	2.08162479987368	2	recall_win	M	FF036.jpg	black
199.38689559977502	2.2622090000659227	ISI	n/a	n/a	n/a	M	FF036.jpg	black
201.65256709977984	2.751516800140962	decision_social	1.88095170003362	8	predict_loss	M	FF037.jpg	latino
204.40425899997354	2.7617224999703467	ISI	n/a	n/a	n/a	M	FF037.jpg	latino
207.1694798998069	2.7509502000175416	decision_social	2.030888300156221	3	recall_loss	M	FF038.jpg	latino
209.92060829978436	2.261927400017157	ISI	n/a	n/a	n/a	M	FF038.jpg	latino
212.1860815999098	2.7515080999583006	decision_social	1.96429149992764	9	predict_win	F	FF039.jpg	white
214.9377718998585	2.7616099999286234	ISI	n/a	n/a	n/a	F	FF039.jpg	white
217.70292039983906	2.7504515000618994	decision_social	1.5303740999661386	2	recall_win	F	FF040.jpg	black
220.45355819980614	1.2623619001824409	ISI	n/a	n/a	n/a	F	FF040.jpg	black
221.7203578997869	2.751175100216642	decision_social	2.7132761001121253	4	recall_neutral	F	FF041.jpg	latino
224.47170269978233	1.0108993002213538	ISI	n/a	n/a	n/a	F	FF041.jpg	latino
225.48618299979717	2.7984098000451922	decision_social	2.798133400036022	9	predict_win	F	FF042.jpg	white
228.2847543999087	1.7644356999080628	ISI	n/a	n/a	n/a	F	FF042.jpg	white
230.05269209994003	2.751020499970764	decision_social	1.9648122999351472	7	predict_neutral	M	MF001.jpg	black
232.8039008998312	2.762099000159651	ISI	n/a	n/a	n/a	M	MF001.jpg	black
235.56970639992505	2.7510943000670522	decision_social	1.914234699914232	8	predict_loss	F	MF002.jpg	asian
238.32097719982266	2.7616434001829475	ISI	n/a	n/a	n/a	F	MF002.jpg	asian
241.08621509978548	2.750359200173989	decision_social	2.4971778001636267	4	recall_neutral	M	MF003.jpg	latino
243.83675809996203	1.0124080998357385	ISI	n/a	n/a	n/a	M	MF003.jpg	latino
244.85274839983322	2.7518591000698507	decision_social	1.963755900040269	2	recall_win	F	MF004.jpg	white
247.60479319980368	5.761066900100559	ISI	n/a	n/a	n/a	F	MF004.jpg	white
253.3694918998517	2.7511664000339806	decision_social	2.498082699952647	8	predict_loss	M	MF005.jpg	white
256.1208380998578	1.761869299924001	ISI	n/a	n/a	n/a	M	MF005.jpg	white
257.8864454999566	2.7512922999449074	decision_social	2.36329869995825	4	recall_neutral	M	MF006.jpg	black
260.63792109978385	2.0112803000956774	ISI	n/a	n/a	n/a	M	MF006.jpg	black
262.6528968999628	2.7507643999997526	decision_social	1.4805127999279648	2	recall_win	F	MF007.jpg	asian
265.40384889999405	2.2617920998018235	ISI	n/a	n/a	n/a	F	MF007.jpg	asian
267.6693357999902	2.750983699923381	decision_social	2.7309804998803884	8	predict_loss	M	MF008.jpg	white
270.4204906998202	1.7620427999645472	ISI	n/a	n/a	n/a	M	MF008.jpg	white
272.18625589995645	2.7504151999019086	decision_social	2.2965750999283046	9	predict_win	F	MF009.jpg	latino
274.9368559999857	1.7622369998134673	ISI	n/a	n/a	n/a	F	MF009.jpg	latino
276.70277239987627	2.7512924999464303	decision_social	1.8797744000330567	8	predict_loss	F	MF010.jpg	asian
279.45425729989074	1.2616016000974923	ISI	n/a	n/a	n/a	F	MF010.jpg	asian
280.71965609979816	2.7505530000198632	decision_social	1.9640654001850635	7	predict_neutral	M	MF011.jpg	latino
283.4704135998618	2.762065200135112	ISI	n/a	n/a	n/a	M	MF011.jpg	latino
286.2361461999826	2.9813794000074267	decision_social	2.981079999823123	7	predict_neutral	M	MF012.jpg	black
289.2176969998982	6.514740600017831	ISI	n/a	n/a	n/a	M	MF012.jpg	black
295.73630909994245	2.751212399918586	decision_social	1.863343499833718	8	predict_loss	F	MF013.jpg	latino
298.48771579982713	2.2612540000118315	ISI	n/a	n/a	n/a	F	MF013.jpg	latino
300.7527230998967	2.7519306999165565	decision_social	2.530011999886483	8	predict_loss	F	MF014.jpg	asian
303.5048473000061	4.010911799967289	ISI	n/a	n/a	n/a	F	MF014.jpg	asian
307.519485599827	3.03095700009726	decision_social	3.0306474999524653	2	recall_win	M	MF015.jpg	black
310.55062349978834	5.765091700013727	ISI	n/a	n/a	n/a	M	MF015.jpg	black
316.319490699796	2.751929100137204	decision_social	2.430911700008437	4	recall_neutral	M	MF016.jpg	asian
319.07161339977756	1.5107446000911295	ISI	n/a	n/a	n/a	M	MF016.jpg	asian
320.5860941999126	2.75149909988977	decision_social	2.3645273000001907	2	recall_win	M	MF017.jpg	white
323.3377872998826	1.2613131001126021	ISI	n/a	n/a	n/a	M	MF017.jpg	white
324.6029207999818	2.750398699892685	decision_social	2.746410899795592	9	predict_win	M	MF018.jpg	latino
327.35349819995463	6.262052400037646	ISI	n/a	n/a	n/a	M	MF018.jpg	latino
333.61955059994943	2.7519610999152064	decision_social	2.197855999926105	3	recall_loss	F	MF019.jpg	white
336.3717093998566	3.7605695999227464	ISI	n/a	n/a	n/a	F	MF019.jpg	white
340.1362395999022	2.751403799979016	decision_social	2.26313229999505	8	predict_loss	M	MF020.jpg	latino
342.88784509990364	1.5111511000432074	ISI	n/a	n/a	n/a	M	MF020.jpg	latino
344.40276379999705	3.113538899924606	decision_social	3.1132231999654323	4	recall_neutral	F	MF021.jpg	black
347.51649619988166	5.0157713000662625	ISI	n/a	n/a	n/a	F	MF021.jpg	black
352.53605749993585	2.751359899993986	decision_social	1.5643759998492897	2	recall_win	F	MF022.jpg	latino
355.2876187998336	2.0113954001571983	ISI	n/a	n/a	n/a	F	MF022.jpg	latino
357.3028465998359	2.7509787001181394	decision_social	2.5964961999561638	9	predict_win	M	MF023.jpg	black
360.05401459988207	5.761506299953908	ISI	n/a	n/a	n/a	M	MF023.jpg	black
365.8193276999518	2.7516963998787105	decision_social	2.1810448998585343	4	recall_neutral	M	MF024.jpg	asian
368.5712285998743	3.760978400008753	ISI	n/a	n/a	n/a	M	MF024.jpg	asian
372.33597679995	2.7503903999459	decision_social	2.330377700040117	8	predict_loss	F	MF025.jpg	white
375.0865710999351	2.512319799978286	ISI	n/a	n/a	n/a	F	MF025.jpg	white
377.6027228999883	2.751752399839461	decision_social	2.7128031998872757	8	predict_loss	M	MF026.jpg	asian
380.35466729989275	3.010802600067109	ISI	n/a	n/a	n/a	M	MF026.jpg	asian
383.36943359998986	2.7509849998168647	decision_social	1.6963239999022335	9	predict_win	F	MF027.jpg	white
386.1206292998977	1.2615473000332713	ISI	n/a	n/a	n/a	F	MF027.jpg	white
387.3859970998019	2.750854999991134	decision_social	2.596374000189826	4	recall_neutral	M	MF028.jpg	black
390.1370457999874	3.011890299851075	ISI	n/a	n/a	n/a	M	MF028.jpg	black
393.1526773998048	2.7517629000358284	decision_social	1.2304069001693279	2	recall_win	F	MF029.jpg	white
395.9046465998981	4.760835400084034	ISI	n/a	n/a	n/a	F	MF029.jpg	white
400.66935330000706	2.751043199794367	decision_social	1.8131189998239279	8	predict_loss	F	MF030.jpg	black
403.420609299792	2.511503500165418	ISI	n/a	n/a	n/a	F	MF030.jpg	black
405.9359547998756	2.7515543999616057	decision_social	1.997436299920082	3	recall_loss	M	MF031.jpg	latino
408.6877218999434	1.0111551999580115	ISI	n/a	n/a	n/a	M	MF031.jpg	latino
409.702745199902	2.7504312999080867	decision_social	2.213579500094056	2	recall_win	M	MF032.jpg	white
412.45345829986036	6.512028099969029	ISI	n/a	n/a	n/a	M	MF032.jpg	white
418.9693641997874	2.751781800063327	decision_social	2.030801000073552	2	recall_win	M	MF033.jpg	white
421.7213571998291	1.0108020999468863	ISI	n/a	n/a	n/a	M	MF033.jpg	white
422.7361991999205	2.7503055999986827	decision_social	2.746315299998969	4	recall_neutral	F	MF034.jpg	latino
425.4867021997925	1.262044400209561	ISI	n/a	n/a	n/a	F	MF034.jpg	latino
426.75260629993863	2.751733100041747	decision_social	2.46372799994424	3	recall_loss	F	MF035.jpg	latino
429.50455660000443	1.260861499933526	ISI	n/a	n/a	n/a	F	MF035.jpg	latino
430.769312299788	2.752044500084594	decision_social	1.7970676000695676	2	recall_win	M	MF036.jpg	black
433.52157219988294	1.010580100119114	ISI	n/a	n/a	n/a	M	MF036.jpg	black
434.5360153999645	2.762774799950421	decision_social_MISSED	missed	missed	missed	M	MF037.jpg	asian
437.2989445999265	3.5014055999927223	ISI	0.11693669995293021	9	predict_win	M	MF037.jpg	asian
440.8042409999762	2.752180799841881	decision_social	2.7292402999009937	9	predict_win	M	MF038.jpg	latino
443.5566235999577	3.25875879987143	ISI	n/a	n/a	n/a	M	MF038.jpg	latino
446.8193434998393	2.751897000009194	decision_social	1.979564500041306	3	recall_loss	F	MF039.jpg	black
449.5714557999745	3.260645000031218	ISI	n/a	n/a	n/a	F	MF039.jpg	black
452.8360356998164	2.750381200108677	decision_social	1.72969190008007	2	recall_win	M	MF040.jpg	asian
455.5866351998411	1.012118099955842	ISI	n/a	n/a	n/a	M	MF040.jpg	asian
456.6026086998172	2.7507220001425594	decision_social	2.529603100148961	8	predict_loss	F	MF041.jpg	white
459.353549499996	1.511793099809438	ISI	n/a	n/a	n/a	F	MF041.jpg	white
460.86927389982156	2.7520192000083625	decision_social	2.38110680016689	4	recall_neutral	M	MF042.jpg	asian
463.6215096998494	3.7606035000644624	ISI	n/a	n/a	n/a	M	MF042.jpg	asian
