onset	duration	trial_type	rt	resp	selection	gender	image	image_type
0.0	1.0	ISI	n/a	n/a	n/a	n/a	n/a	n/a
1.0204059999996389	2.751838800002588	decision_monetary	1.8559649000017089	2	recall_win	D	DD003.jpg	green
3.7725504000009096	1.01060729999881	ISI	n/a	n/a	n/a	D	DD003.jpg	green
4.786542000001646	2.7517537999992783	decision_monetary	2.15732719999869	3	recall_loss	D	DD016.jpg	brown
7.5385996000004525	3.2611295000024256	ISI	n/a	n/a	n/a	D	DD016.jpg	brown
10.802975599999627	2.7510855000000447	decision_monetary	2.4902961000007053	7	predict_neutral	S	SD035.jpg	blue
13.55435690000013	2.76211770000009	ISI	n/a	n/a	n/a	S	SD035.jpg	blue
16.319876400000794	2.752059800001007	decision_monetary	2.074921200000972	2	recall_win	D	DD029.jpg	brown
19.072225400002935	2.510796999999002	ISI	n/a	n/a	n/a	D	DD029.jpg	brown
21.586425000001327	2.7517870999981824	decision_monetary	1.9580640999993193	2	recall_win	S	SD037.jpg	red
24.33851549999963	6.261184800001502	ISI	n/a	n/a	n/a	S	SD037.jpg	red
30.633624699999928	2.7504979000004823	decision_monetary	2.1278082999997423	7	predict_neutral	D	DD020.jpg	brown
33.3844319000018	1.2652634999976726	ISI	n/a	n/a	n/a	D	DD020.jpg	brown
34.65307910000047	2.7633172999994713	decision_monetary_MISSED	missed	missed	missed	S	SD026.jpg	gray
37.41667159999997	3.016304200002196	ISI	n/a	n/a	n/a	S	SD026.jpg	gray
40.436289600002056	2.7516216000003624	decision_monetary	2.0740110999977333	9	predict_win	D	DD034.jpg	purple
43.18820770000093	3.761462599999504	ISI	n/a	n/a	n/a	D	DD034.jpg	purple
46.95296919999964	2.752070200000162	decision_monetary	1.457225500002096	2	recall_win	S	SD013.jpg	blue
49.705332700003055	2.0110110999994504	ISI	n/a	n/a	n/a	S	SD013.jpg	blue
51.71977600000173	2.751990900000237	decision_monetary	1.5733703000005335	2	recall_win	S	SD016.jpg	brown
54.47206890000234	1.2608285999995132	ISI	n/a	n/a	n/a	S	SD016.jpg	brown
55.7362463999998	2.7502058999998553	decision_monetary	1.8740402000003087	7	predict_neutral	S	SD014.jpg	black
58.486763700002484	2.5129349999988335	ISI	n/a	n/a	n/a	S	SD014.jpg	black
61.00412150000193	2.750865399997565	decision_monetary	1.5892118999981903	2	recall_win	D	DD028.jpg	red
63.75529240000105	1.011349299998983	ISI	n/a	n/a	n/a	D	DD028.jpg	red
64.77009159999943	2.751042800002324	decision_monetary	1.5570073000017146	3	recall_loss	S	SD039.jpg	blue
67.52145110000129	5.261352099998476	ISI	n/a	n/a	n/a	S	SD039.jpg	blue
72.78624870000203	2.7517092999987653	decision_monetary	1.4568192999977327	2	recall_win	S	SD002.jpg	purple
75.53826590000244	1.011326799998642	ISI	n/a	n/a	n/a	S	SD002.jpg	purple
76.553021300002	2.7522312000000966	decision_monetary	1.4905374999980268	3	recall_loss	S	SD027.jpg	green
79.30556720000095	2.760489399999642	ISI	n/a	n/a	n/a	S	SD027.jpg	green
82.06945980000091	2.7515692000015406	decision_monetary	2.3577074999993783	7	predict_neutral	D	DD005.jpg	brown
84.82133290000274	3.7614381999992474	ISI	n/a	n/a	n/a	D	DD005.jpg	brown
88.58613650000188	2.7510769000000437	decision_monetary	2.29038539999965	7	predict_neutral	S	SD001.jpg	green
91.33752939999977	3.7619759000008344	ISI	n/a	n/a	n/a	S	SD001.jpg	green
95.10289740000007	2.7503298000010545	decision_monetary	2.158131300002424	9	predict_win	D	DD001.jpg	blue
97.8535335000015	1.012625899998966	ISI	n/a	n/a	n/a	D	DD001.jpg	blue
98.86962180000046	2.7517411000007996	decision_monetary	1.8077110000012908	9	predict_win	D	DD008.jpg	blue
101.62166179999986	4.761047300002247	ISI	n/a	n/a	n/a	D	DD008.jpg	blue
106.38612260000082	2.7521053999989817	decision_monetary	2.2582676999991236	2	recall_win	D	DD027.jpg	blue
109.13854170000195	1.5109086999982537	ISI	n/a	n/a	n/a	D	DD027.jpg	blue
110.65303010000207	2.751047699999617	decision_monetary	2.4080948999981047	4	recall_neutral	S	SD011.jpg	blue
113.40439289999995	1.0119578000012552	ISI	n/a	n/a	n/a	S	SD011.jpg	blue
114.42000370000096	2.7511884000014106	decision_monetary	1.7573297000017192	2	recall_win	S	SD007.jpg	brown
117.17150680000123	4.011148500001582	ISI	n/a	n/a	n/a	S	SD007.jpg	brown
121.18611140000212	2.7508792000007816	decision_monetary	1.2407413000000815	2	recall_win	S	SD009.jpg	blue
123.93730900000082	3.262089300002117	ISI	n/a	n/a	n/a	S	SD009.jpg	blue
127.20287120000285	2.751967299998796	decision_monetary	2.089845399998012	3	recall_loss	S	SD012.jpg	brown
129.95516510000016	2.2608335000004445	ISI	n/a	n/a	n/a	S	SD012.jpg	brown
132.21953180000128	2.751149700001406	decision_monetary	1.3916022999983397	2	recall_win	S	SD023.jpg	blue
134.97099610000078	1.0116211000022304	ISI	n/a	n/a	n/a	S	SD023.jpg	blue
135.98624510000082	2.751096600000892	decision_monetary	2.3079906000020856	7	predict_neutral	D	DD031.jpg	pink
138.73767080000107	2.7616687000008824	ISI	n/a	n/a	n/a	D	DD031.jpg	pink
141.50297520000095	2.751759900002071	decision_monetary	1.3412237000011373	2	recall_win	D	DD024.jpg	white
144.2550575000023	3.2611718000007386	ISI	n/a	n/a	n/a	D	DD024.jpg	white
147.51976009999998	2.750316500001645	decision_monetary	1.49018210000213	2	recall_win	S	SD005.jpg	black
150.27041440000175	2.5121041999991576	ISI	n/a	n/a	n/a	S	SD005.jpg	black
152.78609710000092	2.750279700001556	decision_monetary	1.4571652000013273	3	recall_loss	D	DD035.jpg	brown
155.5367275000026	1.5125716000002285	ISI	n/a	n/a	n/a	D	DD035.jpg	brown
157.05287769999995	2.750985099999525	decision_monetary	1.8071306000019831	2	recall_win	D	DD014.jpg	green
159.80418869999994	6.261651000000711	ISI	n/a	n/a	n/a	D	DD014.jpg	green
166.06936750000023	2.7513152999999875	decision_monetary	1.1247519000025932	2	recall_win	D	DD022.jpg	blue
168.82100530000025	3.011545600002137	ISI	n/a	n/a	n/a	D	DD022.jpg	blue
171.83627700000216	2.7515170000006037	decision_monetary	1.7402541999981622	3	recall_loss	D	DD009.jpg	white
174.58812300000136	2.0111130000004778	ISI	n/a	n/a	n/a	D	DD009.jpg	white
176.60275580000234	2.750279199997749	decision_monetary	1.3913538999986486	2	recall_win	S	SD042.jpg	purple
179.35337179999988	1.7622088000025542	ISI	n/a	n/a	n/a	S	SD042.jpg	purple
181.11914580000303	2.750930199999857	decision_monetary	1.225129199996445	4	recall_neutral	S	SD033.jpg	brown
183.87040870000055	1.0120845000019472	ISI	n/a	n/a	n/a	S	SD033.jpg	brown
184.88606250000157	2.7509312000001955	decision_monetary	1.973852999999508	2	recall_win	S	SD029.jpg	black
187.63732950000121	5.511815400001069	ISI	n/a	n/a	n/a	S	SD029.jpg	black
193.15278390000094	2.751984300000913	decision_monetary	2.3405104000012216	7	predict_neutral	S	SD034.jpg	red
195.9051025000008	2.0104204999988724	ISI	n/a	n/a	n/a	S	SD034.jpg	red
197.9191490000012	2.751843400001235	decision_monetary	2.4748962999983632	7	predict_neutral	D	DD032.jpg	red
200.6713318000002	5.761019400000805	ISI	n/a	n/a	n/a	D	DD032.jpg	red
206.4360340000021	2.7520222999992257	decision_monetary	1.2070128999985172	2	recall_win	D	DD039.jpg	white
209.18839330000264	2.760603799997625	ISI	n/a	n/a	n/a	D	DD039.jpg	white
211.95271570000114	2.7502709000000323	decision_monetary	1.0913967000014964	2	recall_win	D	DD002.jpg	brown
214.70332890000282	1.2623588999995263	ISI	n/a	n/a	n/a	D	DD002.jpg	brown
215.96926390000226	2.750804999999673	decision_monetary	1.123760599999514	2	recall_win	D	DD019.jpg	blue
218.72041300000274	4.011994699998468	ISI	n/a	n/a	n/a	D	DD019.jpg	blue
222.73615820000123	2.7519150000007357	decision_monetary	1.2063621999986935	2	recall_win	D	DD040.jpg	black
225.48841780000294	1.7606146999969496	ISI	n/a	n/a	n/a	D	DD040.jpg	black
227.25271780000185	2.7513957000010123	decision_monetary	2.2736354999979085	3	recall_loss	D	DD021.jpg	red
230.00445670000045	1.5111323000019183	ISI	n/a	n/a	n/a	D	DD021.jpg	red
231.51923940000052	2.75050199999896	decision_monetary	1.7738124000024982	4	recall_neutral	D	DD007.jpg	blue
234.27009730000282	5.512280899998586	ISI	n/a	n/a	n/a	D	DD007.jpg	blue
239.78606450000007	2.751004500001727	decision_monetary	1.423636900002748	2	recall_win	S	SD036.jpg	black
242.53741660000014	1.5115738999993482	ISI	n/a	n/a	n/a	S	SD036.jpg	black
244.05300500000158	2.751059099999111	decision_monetary	1.6910156999983883	2	recall_win	D	DD018.jpg	brown
246.80439770000157	6.511168000000907	ISI	n/a	n/a	n/a	D	DD018.jpg	brown
253.3192436999998	2.750313399999868	decision_monetary	1.1068715000001248	2	recall_win	D	DD013.jpg	brown
256.06989500000054	6.512264200002392	ISI	n/a	n/a	n/a	D	DD013.jpg	brown
262.5859206000023	2.751688099997409	decision_monetary	1.8246331999980612	7	predict_neutral	S	SD031.jpg	red
265.33794409999973	1.510846400000446	ISI	n/a	n/a	n/a	S	SD031.jpg	red
266.85247750000053	2.750877800001035	decision_monetary	1.723721000002115	2	recall_win	S	SD030.jpg	red
269.6036924	6.511725700001989	ISI	n/a	n/a	n/a	S	SD030.jpg	red
276.1191550000003	2.750832800000353	decision_monetary	1.6569794000024558	2	recall_win	S	SD010.jpg	yellow
278.87034230000063	3.761817599999631	ISI	n/a	n/a	n/a	S	SD010.jpg	yellow
282.635888300003	2.751025799996569	decision_monetary	1.9900650999989011	7	predict_neutral	D	DD037.jpg	brown
285.38724960000036	5.76153990000239	ISI	n/a	n/a	n/a	D	DD037.jpg	brown
291.1525302000009	2.7505254999996396	decision_monetary	1.3075452000011865	2	recall_win	D	DD004.jpg	blue
293.90341310000076	1.2619577000004938	ISI	n/a	n/a	n/a	D	DD004.jpg	blue
295.1691267000024	2.750502499999129	decision_monetary	1.1567586999990453	2	recall_win	D	DD042.jpg	brown
297.91997240000273	3.0121102999983123	ISI	n/a	n/a	n/a	D	DD042.jpg	brown
300.93584920000285	2.751748199996655	decision_monetary	2.358161399999517	4	recall_neutral	D	DD010.jpg	green
303.6879536000015	1.2608121999983268	ISI	n/a	n/a	n/a	D	DD010.jpg	green
304.9525606999996	2.750605799999903	decision_monetary	1.0579670000006445	4	recall_neutral	S	SD004.jpg	white
307.70350710000275	2.0118191999972623	ISI	n/a	n/a	n/a	S	SD004.jpg	white
309.71916950000013	2.751497200002632	decision_monetary	1.940381399999751	7	predict_neutral	D	DD033.jpg	red
312.4710111000022	1.2610342999978457	ISI	n/a	n/a	n/a	D	DD033.jpg	red
313.7359131000012	2.7508950000010373	decision_monetary	2.1410224999999627	4	recall_neutral	S	SD022.jpg	red
316.48716740000236	2.0117457999986073	ISI	n/a	n/a	n/a	S	SD022.jpg	red
318.50267800000074	2.750854000001709	decision_monetary	1.34022510000068	2	recall_win	S	SD006.jpg	black
321.2538794000029	2.2614163999969605	ISI	n/a	n/a	n/a	S	SD006.jpg	black
323.5192446000001	2.7512411999996402	decision_monetary	1.6395351000028313	2	recall_win	D	DD015.jpg	blue
326.2708358000018	5.761173999999301	ISI	n/a	n/a	n/a	D	DD015.jpg	blue
332.03590410000106	2.751945200001501	decision_monetary	2.0568163999996614	7	predict_neutral	S	SD038.jpg	brown
334.7882019999997	1.760405200002424	ISI	n/a	n/a	n/a	S	SD038.jpg	brown
336.5524894000009	2.7513734999993176	decision_monetary	1.8733881000007386	9	predict_win	S	SD019.jpg	brown
339.3042282000024	1.261044299997593	ISI	n/a	n/a	n/a	S	SD019.jpg	brown
340.56909590000214	2.750515199997608	decision_monetary	1.8908602999981667	9	predict_win	D	DD030.jpg	brown
343.3199596000013	4.511885700001585	ISI	n/a	n/a	n/a	D	DD030.jpg	brown
347.835727200003	2.7517606999972486	decision_monetary	2.6231266999966465	3	recall_loss	D	DD026.jpg	white
350.58784899999955	5.0106571000033	ISI	n/a	n/a	n/a	D	DD026.jpg	white
355.60237060000145	2.7504029000010632	decision_monetary	1.3245911000012711	2	recall_win	D	DD017.jpg	red
358.3531432000018	3.012082900000678	ISI	n/a	n/a	n/a	D	DD017.jpg	red
361.36913640000057	2.7506783999997424	decision_monetary	1.206710500002373	2	recall_win	S	SD008.jpg	blue
364.1201680000013	1.0116735999981756	ISI	n/a	n/a	n/a	S	SD008.jpg	blue
365.1357483000029	2.7507080999967	decision_monetary	1.907195199997659	3	recall_loss	S	SD025.jpg	green
367.8868126000016	3.7616452000002027	ISI	n/a	n/a	n/a	S	SD025.jpg	green
371.65229069999987	2.7502282000023115	decision_monetary	1.556694900002185	2	recall_win	D	DD023.jpg	blue
374.4028776000014	2.262266900001123	ISI	n/a	n/a	n/a	D	DD023.jpg	blue
376.66902990000017	2.750554199999897	decision_monetary	1.7738358999995398	3	recall_loss	S	SD018.jpg	green
379.4199387000008	1.2618810000021767	ISI	n/a	n/a	n/a	S	SD018.jpg	green
380.68580120000115	2.750552000001335	decision_monetary	1.4731514999984938	7	predict_neutral	S	SD020.jpg	green
383.4367138000016	6.011620699999185	ISI	n/a	n/a	n/a	S	SD020.jpg	green
389.45226390000244	2.750563099998544	decision_monetary	1.8235340999999607	7	predict_neutral	S	SD040.jpg	brown
392.20319510000263	1.762075200000254	ISI	n/a	n/a	n/a	S	SD040.jpg	brown
393.96927210000285	2.7514897999972163	decision_monetary	1.8741516999980377	4	recall_neutral	S	SD028.jpg	grey
396.72112010000274	1.0105205999971076	ISI	n/a	n/a	n/a	S	SD028.jpg	grey
397.7355563000019	2.7508935000005295	decision_monetary	1.9911925999986124	4	recall_neutral	S	SD015.jpg	yellow
400.4868071000019	2.7614764999998442	ISI	n/a	n/a	n/a	S	SD015.jpg	yellow
403.2522108000012	2.75149059999967	decision_monetary	1.5402380999985326	4	recall_neutral	S	SD032.jpg	purple
406.0040814000022	1.2609623999996984	ISI	n/a	n/a	n/a	S	SD032.jpg	purple
407.26896540000234	2.751904499997181	decision_monetary	1.1063037999992957	4	recall_neutral	S	SD021.jpg	blue
410.02123010000287	1.5106732999993255	ISI	n/a	n/a	n/a	S	SD021.jpg	blue
411.5358191000014	2.751053600000887	decision_monetary	1.9059434999981022	7	predict_neutral	S	SD041.jpg	brown
414.2872489000001	2.0110000999993645	ISI	n/a	n/a	n/a	S	SD041.jpg	brown
416.302180900002	2.7512298000001465	decision_monetary	1.6233962000005704	7	predict_neutral	D	DD011.jpg	brown
419.05377729999964	2.511246400001255	ISI	n/a	n/a	n/a	D	DD011.jpg	brown
421.5691020000013	2.750238000000536	decision_monetary	1.8076914000012039	7	predict_neutral	D	DD036.jpg	brown
424.31970320000255	1.012310099999013	ISI	n/a	n/a	n/a	D	DD036.jpg	brown
425.3361038000003	2.7503977000014856	decision_monetary	1.6556764000015392	7	predict_neutral	D	DD025.jpg	brown
428.0868666999995	1.0114745999999286	ISI	n/a	n/a	n/a	D	DD025.jpg	brown
429.10246720000214	2.7518124999987776	decision_monetary	2.1896287999989	9	predict_win	S	SD003.jpg	yellow
431.85464670000147	3.0102953999994497	ISI	n/a	n/a	n/a	S	SD003.jpg	yellow
434.86897970000064	2.750670600002195	decision_monetary	1.6578286000003573	2	recall_win	S	SD024.jpg	blue
437.6200303000005	1.511549599999853	ISI	n/a	n/a	n/a	S	SD024.jpg	blue
439.1355661000016	2.7507727000011073	decision_monetary	1.9226694999997562	3	recall_loss	D	DD006.jpg	brown
441.8867105999998	2.7613197000027867	ISI	n/a	n/a	n/a	D	DD006.jpg	brown
444.6521595000013	2.752175999998144	decision_monetary	1.5235945999993419	4	recall_neutral	D	DD038.jpg	brown
447.40471190000244	3.5101847000005364	ISI	n/a	n/a	n/a	D	DD038.jpg	brown
450.9189812000004	2.7512673000019277	decision_monetary	1.7407220999994024	4	recall_neutral	S	SD017.jpg	blue
453.6706274999997	1.760809400002472	ISI	n/a	n/a	n/a	S	SD017.jpg	blue
455.43546120000246	2.75092450000011	decision_monetary	1.9073064000003797	3	recall_loss	D	DD012.jpg	brown
458.1867542	2.2613467000010132	ISI	n/a	n/a	n/a	D	DD012.jpg	brown
460.45207870000013	2.7513386999999057	decision_monetary	1.573636400000396	8	predict_loss	D	DD041.jpg	brown
463.2037988000011	1.2610925000008137	ISI	n/a	n/a	n/a	D	DD041.jpg	brown
