onset	duration	trial_type	rt	resp	selection	gender	image_left	image_right	image_left_type	image_right_type
0.0	1.0	ITI	n/a	n/a	n/a	n/a	n/a	n/a	n/a	n/a
1.0257035999093205	2.507711000042036	decision_monetary_loss_MISSED	missed	missed	missed	D	DD023.jpg	DD024.jpg	blue	white
3.5335645999293774	0.5000282998662442	ISI	n/a	n/a	n/a	D	DD023.jpg	DD024.jpg	blue	white
4.033661299850792	1.0164131000638008	feedback_monetary_loss_MISSED	n/a	n/a	n/a	D	DD023.jpg	DD024.jpg	blue	white
5.050171999959275	1.9999978998675942	ITI	n/a	n/a	n/a	D	DD023.jpg	DD024.jpg	blue	white
7.058215399971232	2.5086117999162525	decision_monetary_win_MISSED	missed	missed	missed	D	DD015.jpg	DD016.jpg	blue	brown
9.566951199900359	0.5164656999986619	ISI	n/a	n/a	n/a	D	DD015.jpg	DD016.jpg	blue	brown
10.083475499879569	1.000143500044942	feedback_monetary_win_MISSED	n/a	n/a	n/a	D	DD015.jpg	DD016.jpg	blue	brown
11.083716299850494	4.016504900064319	ITI	n/a	n/a	n/a	D	DD015.jpg	DD016.jpg	blue	brown
15.108162099961191	2.508596299914643	decision_monetary_win_MISSED	missed	missed	missed	D	DD013.jpg	DD014.jpg	brown	green
17.61688270000741	1.5165738998912275	ISI	n/a	n/a	n/a	D	DD013.jpg	DD014.jpg	brown	green
19.133513999870047	1.0165113999973983	feedback_monetary_win_MISSED	n/a	n/a	n/a	D	DD013.jpg	DD014.jpg	brown	green
20.150122799910605	1.0164900999516249	ITI	n/a	n/a	n/a	D	DD013.jpg	DD014.jpg	brown	green
21.174555299803615	2.5088290001731366	decision_monetary_loss_MISSED	missed	missed	missed	S	SD029.jpg	SD030.jpg	black	red
23.683508099988103	0.5166752999648452	ISI	n/a	n/a	n/a	S	SD029.jpg	SD030.jpg	black	red
24.200241399928927	1.016574699897319	feedback_monetary_loss_MISSED	n/a	n/a	n/a	S	SD029.jpg	SD030.jpg	black	red
25.216932199895382	5.0164224000182	ITI	n/a	n/a	n/a	S	SD029.jpg	SD030.jpg	black	red
30.241193199995905	2.508943900000304	decision_monetary_win_MISSED	missed	missed	missed	D	DD003.jpg	DD004.jpg	green	blue
32.75025899987668	2.0165910001378506	ISI	n/a	n/a	n/a	D	DD003.jpg	DD004.jpg	green	blue
34.76690829987638	1.0164407999254763	feedback_monetary_win_MISSED	n/a	n/a	n/a	D	DD003.jpg	DD004.jpg	green	blue
35.783448699861765	2.016515500145033	ITI	n/a	n/a	n/a	D	DD003.jpg	DD004.jpg	green	blue
37.80806269985624	2.5087504000402987	decision_monetary_win_MISSED	missed	missed	missed	D	DD019.jpg	DD020.jpg	blue	brown
40.316953599918634	0.5163783999159932	ISI	n/a	n/a	n/a	D	DD019.jpg	DD020.jpg	blue	brown
40.83339269994758	1.0169230999890715	feedback_monetary_win_MISSED	n/a	n/a	n/a	D	DD019.jpg	DD020.jpg	blue	brown
41.85041949991137	1.0163193000480533	ITI	n/a	n/a	n/a	D	DD019.jpg	DD020.jpg	blue	brown
42.874952299986035	2.5084377999883145	decision_monetary_loss_MISSED	missed	missed	missed	S	SD025.jpg	SD026.jpg	green	gray
45.383532400010154	0.5165353999473155	ISI	n/a	n/a	n/a	S	SD025.jpg	SD026.jpg	green	gray
45.90012939996086	1.0165693999733776	feedback_monetary_loss_MISSED	n/a	n/a	n/a	S	SD025.jpg	SD026.jpg	green	gray
46.91682009981014	1.016541900113225	ITI	n/a	n/a	n/a	S	SD025.jpg	SD026.jpg	green	gray
47.94154099980369	2.5085665001533926	decision_monetary_loss_MISSED	missed	missed	missed	D	DD027.jpg	DD028.jpg	blue	red
50.450234999880195	2.0165252001024783	ISI	n/a	n/a	n/a	D	DD027.jpg	DD028.jpg	blue	red
52.466818399960175	1.0000157998874784	feedback_monetary_loss_MISSED	n/a	n/a	n/a	D	DD027.jpg	DD028.jpg	blue	red
53.466938899829984	1.0164346999954432	ITI	n/a	n/a	n/a	D	DD027.jpg	DD028.jpg	blue	red
54.49187729996629	2.5081312998663634	decision_monetary_loss_MISSED	missed	missed	missed	S	SD031.jpg	SD032.jpg	red	purple
57.0001401999034	1.0167696001008153	ISI	n/a	n/a	n/a	S	SD031.jpg	SD032.jpg	red	purple
58.01696899998933	1.0162648998666555	feedback_monetary_loss_MISSED	n/a	n/a	n/a	S	SD031.jpg	SD032.jpg	red	purple
59.03333899984136	1.0000440999865532	ITI	n/a	n/a	n/a	S	SD031.jpg	SD032.jpg	red	purple
60.04124819999561	2.508764199912548	decision_monetary_win_MISSED	missed	missed	missed	S	SD005.jpg	SD006.jpg	black	black
62.550200699828565	0.516542199999094	ISI	n/a	n/a	n/a	S	SD005.jpg	SD006.jpg	black	black
63.06680119992234	1.0165109999943525	feedback_monetary_win_MISSED	n/a	n/a	n/a	S	SD005.jpg	SD006.jpg	black	black
64.08342939987779	4.016924900002778	ITI	n/a	n/a	n/a	S	SD005.jpg	SD006.jpg	black	black
68.10834219981916	2.508085200097412	decision_monetary_win_MISSED	missed	missed	missed	S	SD015.jpg	SD016.jpg	yellow	brown
70.61654969980009	1.5000899001024663	ISI	n/a	n/a	n/a	S	SD015.jpg	SD016.jpg	yellow	brown
72.11669699987397	1.0166011999826878	feedback_monetary_win_MISSED	n/a	n/a	n/a	S	SD015.jpg	SD016.jpg	yellow	brown
73.13339539989829	1.0000148999970406	ITI	n/a	n/a	n/a	S	SD015.jpg	SD016.jpg	yellow	brown
74.14136399980634	2.5087851001881063	decision_monetary_win_MISSED	missed	missed	missed	D	DD017.jpg	DD018.jpg	red	brown
76.65027209999971	1.0162958998698741	ISI	n/a	n/a	n/a	D	DD017.jpg	DD018.jpg	red	brown
77.66662759985775	1.0167449000291526	feedback_monetary_win_MISSED	n/a	n/a	n/a	D	DD017.jpg	DD018.jpg	red	brown
78.68346949992701	3.016628700075671	ITI	n/a	n/a	n/a	D	DD017.jpg	DD018.jpg	red	brown
81.70825529983267	2.5082277001347393	decision_monetary_loss_MISSED	missed	missed	missed	S	SD027.jpg	SD028.jpg	green	grey
84.21660699998029	1.016720699844882	ISI	n/a	n/a	n/a	S	SD027.jpg	SD028.jpg	green	grey
85.23338399990462	1.016416700091213	feedback_monetary_loss_MISSED	n/a	n/a	n/a	S	SD027.jpg	SD028.jpg	green	grey
86.24989719991572	3.0001215999946	ITI	n/a	n/a	n/a	S	SD027.jpg	SD028.jpg	green	grey
89.257982699899	2.5085895000956953	decision_monetary_loss_MISSED	missed	missed	missed	D	DD029.jpg	DD030.jpg	brown	brown
91.7667071998585	2.0165427001193166	ISI	n/a	n/a	n/a	D	DD029.jpg	DD030.jpg	brown	brown
93.78330779983662	1.0166923000942916	feedback_monetary_loss_MISSED	n/a	n/a	n/a	D	DD029.jpg	DD030.jpg	brown	brown
94.80011429986916	5.016324399970472	ITI	n/a	n/a	n/a	D	DD029.jpg	DD030.jpg	brown	brown
99.82442899979651	2.5087588999886066	decision_monetary_loss_MISSED	missed	missed	missed	S	SD023.jpg	SD024.jpg	blue	blue
102.33330890000798	0.5166668999008834	ISI	n/a	n/a	n/a	S	SD023.jpg	SD024.jpg	blue	blue
102.85003510001116	1.0163114999886602	feedback_monetary_loss_MISSED	n/a	n/a	n/a	S	SD023.jpg	SD024.jpg	blue	blue
103.86644299980253	4.0001362999901175	ITI	n/a	n/a	n/a	S	SD023.jpg	SD024.jpg	blue	blue
107.87460699980147	2.5085953001398593	decision_monetary_win_MISSED	missed	missed	missed	D	DD009.jpg	DD010.jpg	white	green
110.38332689995877	1.0000372000504285	ISI	n/a	n/a	n/a	D	DD009.jpg	DD010.jpg	white	green
111.38342479988933	1.0164367000106722	feedback_monetary_win_MISSED	n/a	n/a	n/a	D	DD009.jpg	DD010.jpg	white	green
112.39995849994011	1.0165919999126345	ITI	n/a	n/a	n/a	D	DD009.jpg	DD010.jpg	white	green
113.42460899986327	2.5085734999738634	decision_monetary_loss_MISSED	missed	missed	missed	D	DD033.jpg	DD034.jpg	red	purple
115.93332479987293	0.5164568999316543	ISI	n/a	n/a	n/a	D	DD033.jpg	DD034.jpg	red	purple
116.44983830000274	1.0165570999961346	feedback_monetary_loss_MISSED	n/a	n/a	n/a	D	DD033.jpg	DD034.jpg	red	purple
117.46649199980311	5.016754999989644	ITI	n/a	n/a	n/a	D	DD033.jpg	DD034.jpg	red	purple
122.49131059995852	2.508531400002539	decision_monetary_loss_MISSED	missed	missed	missed	D	DD025.jpg	DD026.jpg	brown	white
124.99996729986742	0.5164298000745475	ISI	n/a	n/a	n/a	D	DD025.jpg	DD026.jpg	brown	white
125.51645609992556	1.0167125000152737	feedback_monetary_loss_MISSED	n/a	n/a	n/a	D	DD025.jpg	DD026.jpg	brown	white
126.53326619998552	2.0165518999565393	ITI	n/a	n/a	n/a	D	DD025.jpg	DD026.jpg	brown	white
128.55786189995706	2.5085550998337567	decision_monetary_loss_MISSED	missed	missed	missed	D	DD035.jpg	DD036.jpg	brown	brown
131.06654399982654	1.5166064000222832	ISI	n/a	n/a	n/a	D	DD035.jpg	DD036.jpg	brown	brown
132.58320649992675	1.0166422999463975	feedback_monetary_loss_MISSED	n/a	n/a	n/a	D	DD035.jpg	DD036.jpg	brown	brown
133.59994639991783	1.9999790999572724	ITI	n/a	n/a	n/a	D	DD035.jpg	DD036.jpg	brown	brown
135.6080429998692	2.5083441000897437	decision_monetary_loss_MISSED	missed	missed	missed	D	DD039.jpg	DD040.jpg	white	black
138.11651049996726	0.5167085998691618	ISI	n/a	n/a	n/a	D	DD039.jpg	DD040.jpg	white	black
138.63327579991892	1.0164329998660833	feedback_monetary_loss_MISSED	n/a	n/a	n/a	D	DD039.jpg	DD040.jpg	white	black
139.64980639982969	3.9999659000895917	ITI	n/a	n/a	n/a	D	DD039.jpg	DD040.jpg	white	black
143.6579301999882	2.5084282997995615	decision_monetary_loss_MISSED	missed	missed	missed	D	DD031.jpg	DD032.jpg	pink	red
146.16648279991932	1.0166295000817627	ISI	n/a	n/a	n/a	D	DD031.jpg	DD032.jpg	pink	red
147.1831680999603	1.0165957999415696	feedback_monetary_loss_MISSED	n/a	n/a	n/a	D	DD031.jpg	DD032.jpg	pink	red
148.19986039982177	2.016510199988261	ITI	n/a	n/a	n/a	D	DD031.jpg	DD032.jpg	pink	red
150.22451450000517	2.509043699828908	decision_monetary_win_MISSED	missed	missed	missed	S	SD009.jpg	SD010.jpg	blue	yellow
152.73368009994738	0.5160892000421882	ISI	n/a	n/a	n/a	S	SD009.jpg	SD010.jpg	blue	yellow
153.24982759985141	1.0165101001039147	feedback_monetary_win_MISSED	n/a	n/a	n/a	S	SD009.jpg	SD010.jpg	blue	yellow
154.26643259986304	1.999973600031808	ITI	n/a	n/a	n/a	S	SD009.jpg	SD010.jpg	blue	yellow
156.27458839979954	2.5084301000460982	decision_monetary_loss_MISSED	missed	missed	missed	S	SD033.jpg	SD034.jpg	brown	red
158.7831425999757	0.5000312998890877	ISI	n/a	n/a	n/a	S	SD033.jpg	SD034.jpg	brown	red
159.28323119995184	1.016421299893409	feedback_monetary_loss_MISSED	n/a	n/a	n/a	S	SD033.jpg	SD034.jpg	brown	red
160.2997491999995	3.0166385998018086	ITI	n/a	n/a	n/a	S	SD033.jpg	SD034.jpg	brown	red
163.32456330000423	2.508501699892804	decision_monetary_win_MISSED	missed	missed	missed	S	SD011.jpg	SD012.jpg	blue	brown
165.8331915999297	0.5165029999334365	ISI	n/a	n/a	n/a	S	SD011.jpg	SD012.jpg	blue	brown
166.3497515998315	1.0166808001231402	feedback_monetary_win_MISSED	n/a	n/a	n/a	S	SD011.jpg	SD012.jpg	blue	brown
167.36652739997953	4.016616199864075	ITI	n/a	n/a	n/a	S	SD011.jpg	SD012.jpg	blue	brown
171.39158009993844	2.508095599943772	decision_monetary_loss_MISSED	missed	missed	missed	S	SD021.jpg	SD022.jpg	blue	red
173.8998016999103	0.5166376000270247	ISI	n/a	n/a	n/a	S	SD021.jpg	SD022.jpg	blue	red
174.41649520001374	1.0167451999150217	feedback_monetary_loss_MISSED	n/a	n/a	n/a	S	SD021.jpg	SD022.jpg	blue	red
175.43333829985932	5.01633429992944	ITI	n/a	n/a	n/a	S	SD021.jpg	SD022.jpg	blue	red
180.45808729995042	2.5082866000011563	decision_monetary_win_MISSED	missed	missed	missed	S	SD003.jpg	SD004.jpg	yellow	white
182.96649839985184	2.0163918000180274	ISI	n/a	n/a	n/a	S	SD003.jpg	SD004.jpg	yellow	white
184.98294719983824	1.0002801001537591	feedback_monetary_win_MISSED	n/a	n/a	n/a	S	SD003.jpg	SD004.jpg	yellow	white
185.9833237999119	1.0163092999719083	ITI	n/a	n/a	n/a	S	SD003.jpg	SD004.jpg	yellow	white
187.0080235998612	2.5083177001215518	decision_monetary_win_MISSED	missed	missed	missed	S	SD007.jpg	SD008.jpg	brown	blue
189.5164632999804	1.016621100017801	ISI	n/a	n/a	n/a	S	SD007.jpg	SD008.jpg	brown	blue
190.53314640000463	1.016449199989438	feedback_monetary_win_MISSED	n/a	n/a	n/a	S	SD007.jpg	SD008.jpg	brown	blue
191.54969229991548	1.0000952000264078	ITI	n/a	n/a	n/a	S	SD007.jpg	SD008.jpg	brown	blue
192.5581499999389	2.508422699989751	decision_monetary_win_MISSED	missed	missed	missed	D	DD021.jpg	DD022.jpg	red	blue
195.06669939984567	1.5161960001569241	ISI	n/a	n/a	n/a	D	DD021.jpg	DD022.jpg	red	blue
196.5829535999801	1.0004139998927712	feedback_monetary_win_MISSED	n/a	n/a	n/a	D	DD021.jpg	DD022.jpg	red	blue
197.58346519991755	1.0160906000528485	ITI	n/a	n/a	n/a	D	DD021.jpg	DD022.jpg	red	blue
198.60810219985433	2.5081716999411583	decision_monetary_win_MISSED	missed	missed	missed	S	SD013.jpg	SD014.jpg	blue	black
201.11639739992097	0.5001365998759866	ISI	n/a	n/a	n/a	S	SD013.jpg	SD014.jpg	blue	black
201.61659049987793	1.0162462999578565	feedback_monetary_win_MISSED	n/a	n/a	n/a	S	SD013.jpg	SD014.jpg	blue	black
202.63293570000678	3.0001147999428213	ITI	n/a	n/a	n/a	S	SD013.jpg	SD014.jpg	blue	black
205.64151869993657	2.5080397999845445	decision_monetary_win_MISSED	missed	missed	missed	S	SD019.jpg	SD020.jpg	brown	green
208.14968289993703	0.516748399939388	ISI	n/a	n/a	n/a	S	SD019.jpg	SD020.jpg	brown	green
208.66648869984783	1.0164624000899494	feedback_monetary_win_MISSED	n/a	n/a	n/a	S	SD019.jpg	SD020.jpg	brown	green
209.68304979987442	5.016438200138509	ITI	n/a	n/a	n/a	S	SD019.jpg	SD020.jpg	brown	green
214.70797619991936	2.5082584000192583	decision_monetary_loss_MISSED	missed	missed	missed	S	SD039.jpg	SD040.jpg	blue	brown
217.21635809983127	2.0166639999952167	ISI	n/a	n/a	n/a	S	SD039.jpg	SD040.jpg	blue	brown
219.23307959991507	1.016483400017023	feedback_monetary_loss_MISSED	n/a	n/a	n/a	S	SD039.jpg	SD040.jpg	blue	brown
220.2496878998354	2.016596799949184	ITI	n/a	n/a	n/a	S	SD039.jpg	SD040.jpg	blue	brown
222.27481899992563	2.5081771998666227	decision_monetary_loss_MISSED	missed	missed	missed	S	SD035.jpg	SD036.jpg	blue	black
224.7831199998036	0.5164458001963794	ISI	n/a	n/a	n/a	S	SD035.jpg	SD036.jpg	blue	black
225.29962689988315	1.0166092000436038	feedback_monetary_loss_MISSED	n/a	n/a	n/a	S	SD035.jpg	SD036.jpg	blue	black
226.31633369997144	0.9999928998295218	ITI	n/a	n/a	n/a	S	SD035.jpg	SD036.jpg	blue	black
227.32486799987964	2.5080220999661833	decision_monetary_loss_MISSED	missed	missed	missed	S	SD041.jpg	SD042.jpg	brown	purple
229.8330158998724	0.5164204000029713	ISI	n/a	n/a	n/a	S	SD041.jpg	SD042.jpg	brown	purple
230.34949349984527	1.0168111000675708	feedback_monetary_loss_MISSED	n/a	n/a	n/a	S	SD041.jpg	SD042.jpg	brown	purple
231.36640139995143	2.01648009987548	ITI	n/a	n/a	n/a	S	SD041.jpg	SD042.jpg	brown	purple
233.391315799905	2.5079463999718428	decision_monetary_win_MISSED	missed	missed	missed	D	DD001.jpg	DD002.jpg	blue	brown
235.89938399987295	0.5004493000451475	ISI	n/a	n/a	n/a	D	DD001.jpg	DD002.jpg	blue	brown
236.39988959999755	1.0163449000101537	feedback_monetary_win_MISSED	n/a	n/a	n/a	D	DD001.jpg	DD002.jpg	blue	brown
237.4163306998089	1.0164944999851286	ITI	n/a	n/a	n/a	D	DD001.jpg	DD002.jpg	blue	brown
238.4413748998195	2.5081486999988556	decision_monetary_win_MISSED	missed	missed	missed	D	DD005.jpg	DD006.jpg	brown	brown
240.9496465998236	1.5164865001570433	ISI	n/a	n/a	n/a	D	DD005.jpg	DD006.jpg	brown	brown
242.4661905998364	1.0165848000906408	feedback_monetary_win_MISSED	n/a	n/a	n/a	D	DD005.jpg	DD006.jpg	brown	brown
243.48287840001285	1.0165573998820037	ITI	n/a	n/a	n/a	D	DD005.jpg	DD006.jpg	brown	brown
244.50798979983665	2.508208200102672	decision_monetary_loss_MISSED	missed	missed	missed	S	SD037.jpg	SD038.jpg	red	brown
247.01632259995677	2.016445399960503	ISI	n/a	n/a	n/a	S	SD037.jpg	SD038.jpg	red	brown
249.03282579989173	1.000056799966842	feedback_monetary_loss_MISSED	n/a	n/a	n/a	S	SD037.jpg	SD038.jpg	red	brown
250.03297870000824	1.0164631998632103	ITI	n/a	n/a	n/a	S	SD037.jpg	SD038.jpg	red	brown
251.05797369987704	2.5081931001041085	decision_monetary_win_MISSED	missed	missed	missed	S	SD017.jpg	SD018.jpg	blue	green
253.56629069987684	1.5164618000853807	ISI	n/a	n/a	n/a	S	SD017.jpg	SD018.jpg	blue	green
255.08280879980884	1.0165815001819283	feedback_monetary_win_MISSED	n/a	n/a	n/a	S	SD017.jpg	SD018.jpg	blue	green
256.0994863999076	2.000108999898657	ITI	n/a	n/a	n/a	S	SD017.jpg	SD018.jpg	blue	green
258.1081249997951	2.507912800181657	decision_monetary_win_MISSED	missed	missed	missed	D	DD011.jpg	DD012.jpg	brown	brown
260.61616349988617	0.516736000077799	ISI	n/a	n/a	n/a	D	DD011.jpg	DD012.jpg	brown	brown
261.13295459980145	1.0164148001931608	feedback_monetary_win_MISSED	n/a	n/a	n/a	D	DD011.jpg	DD012.jpg	brown	brown
262.149467199808	1.0169167001731694	ITI	n/a	n/a	n/a	D	DD011.jpg	DD012.jpg	brown	brown
263.17503749998286	2.507978699868545	decision_monetary_loss_MISSED	missed	missed	missed	D	DD041.jpg	DD042.jpg	brown	brown
265.6831462997943	2.0163189000450075	ISI	n/a	n/a	n/a	D	DD041.jpg	DD042.jpg	brown	brown
267.69952229992487	1.0163620999082923	feedback_monetary_loss_MISSED	n/a	n/a	n/a	D	DD041.jpg	DD042.jpg	brown	brown
268.71598479989916	3.000125600025058	ITI	n/a	n/a	n/a	D	DD041.jpg	DD042.jpg	brown	brown
271.7246987998951	2.5081025001127273	decision_monetary_loss_MISSED	missed	missed	missed	D	DD037.jpg	DD038.jpg	brown	brown
274.2329254997894	0.5165710002183914	ISI	n/a	n/a	n/a	D	DD037.jpg	DD038.jpg	brown	brown
274.74955409998074	1.016558300005272	feedback_monetary_loss_MISSED	n/a	n/a	n/a	D	DD037.jpg	DD038.jpg	brown	brown
275.7662091997918	1.0165505001787096	ITI	n/a	n/a	n/a	D	DD037.jpg	DD038.jpg	brown	brown
276.791344899917	2.5079731999430805	decision_monetary_win_MISSED	missed	missed	missed	S	SD001.jpg	SD002.jpg	green	purple
279.29944349988364	2.01668390003033	ISI	n/a	n/a	n/a	S	SD001.jpg	SD002.jpg	green	purple
281.31618329999037	1.0165566999930888	feedback_monetary_win_MISSED	n/a	n/a	n/a	S	SD001.jpg	SD002.jpg	green	purple
282.33283549989574	5.016571700107306	ITI	n/a	n/a	n/a	S	SD001.jpg	SD002.jpg	green	purple
287.35809229989536	2.508006599964574	decision_monetary_win_MISSED	missed	missed	missed	D	DD007.jpg	DD008.jpg	blue	blue
289.8662226998713	0.516661399975419	ISI	n/a	n/a	n/a	D	DD007.jpg	DD008.jpg	blue	blue
290.3829417999368	1.0163773999083787	feedback_monetary_win_MISSED	n/a	n/a	n/a	D	DD007.jpg	DD008.jpg	blue	blue
291.3994181000162	6.016636199783534	ITI	n/a	n/a	n/a	D	DD007.jpg	DD008.jpg	blue	blue
