onset	duration	trial_type	rt	resp	selection	gender	image_left	image_right	image_left_type	image_right_type
0.0	1.0	ITI	n/a	n/a	n/a	n/a	n/a	n/a	n/a	n/a
1.0235657999292016	2.5021047999616712	decision_social_loss	1.4703202999662608	7	left	M	MF015.jpg	MF016.jpg	black	asian
3.525864699855447	0.5072153001092374	ISI	n/a	n/a	n/a	M	MF015.jpg	MF016.jpg	black	asian
4.033139699837193	1.0160779000725597	feedback_social_loss_neutral	n/a	n/a	n/a	M	MF015.jpg	MF016.jpg	black	asian
5.049348299857229	1.0003967999946326	ITI	n/a	n/a	n/a	M	MF015.jpg	MF016.jpg	black	asian
6.064268499845639	2.5004953001625836	decision_social_win	1.2791937000583857	2	right	F	FF023.jpg	FF024.jpg	white	asian
8.564920699922368	1.0015124999918044	ISI	n/a	n/a	n/a	F	FF023.jpg	FF024.jpg	white	asian
9.566492599900812	1.0159779998939484	feedback_social_win_neutral	n/a	n/a	n/a	F	FF023.jpg	FF024.jpg	white	asian
10.582577099790797	3.000517100095749	ITI	n/a	n/a	n/a	F	FF023.jpg	FF024.jpg	white	asian
13.591624399879947	2.501172299962491	decision_social_win	1.0028711000923067	2	right	M	MF041.jpg	MF042.jpg	white	asian
16.09296019980684	2.0067989001981914	ISI	n/a	n/a	n/a	M	MF041.jpg	MF042.jpg	white	asian
18.099817799869925	1.0160123999230564	feedback_social_win_positive	n/a	n/a	n/a	M	MF041.jpg	MF042.jpg	white	asian
19.116016499930993	4.000325300032273	ITI	n/a	n/a	n/a	M	MF041.jpg	MF042.jpg	white	asian
23.124190700007603	2.5006094998680055	decision_social_win	1.2866906998679042	7	left	M	MF031.jpg	MF032.jpg	latino	white
25.624960199929774	1.5080599999055266	ISI	n/a	n/a	n/a	M	MF031.jpg	MF032.jpg	latino	white
27.133178299991414	1.015976999886334	feedback_social_win_positive	n/a	n/a	n/a	M	MF031.jpg	MF032.jpg	latino	white
28.149260599864647	3.0004247999750078	ITI	n/a	n/a	n/a	M	MF031.jpg	MF032.jpg	latino	white
31.158059499925002	2.500510700047016	decision_social_win	1.1188298999331892	7	left	M	MF039.jpg	MF040.jpg	black	asian
33.65872969990596	2.0079220000188798	ISI	n/a	n/a	n/a	M	MF039.jpg	MF040.jpg	black	asian
35.6667135998141	1.0158629000652581	feedback_social_win_positive	n/a	n/a	n/a	M	MF039.jpg	MF040.jpg	black	asian
36.68268349999562	4.000281599815935	ITI	n/a	n/a	n/a	M	MF039.jpg	MF040.jpg	black	asian
40.69140849984251	2.5020716001745313	decision_social_loss	1.6364923999644816	7	left	F	FF011.jpg	FF012.jpg	white	latino
43.1936446998734	0.5060860000085086	ISI	n/a	n/a	n/a	F	FF011.jpg	FF012.jpg	white	latino
43.699791699880734	1.015972699970007	feedback_social_loss_negative	n/a	n/a	n/a	F	FF011.jpg	FF012.jpg	white	latino
44.71587509987876	2.000432699918747	ITI	n/a	n/a	n/a	F	FF011.jpg	FF012.jpg	white	latino
46.7242755999323	2.500501399859786	decision_social_loss	1.3525819999631494	7	left	F	FF001.jpg	FF002.jpg	latino	black
49.224944199901074	2.007990000071004	ISI	n/a	n/a	n/a	F	FF001.jpg	FF002.jpg	latino	black
51.232997899875045	1.0161071999464184	feedback_social_loss_negative	n/a	n/a	n/a	F	FF001.jpg	FF002.jpg	latino	black
52.249219599878415	3.000345000065863	ITI	n/a	n/a	n/a	F	FF001.jpg	FF002.jpg	latino	black
55.25779679999687	2.501763899810612	decision_social_loss	1.0860653999261558	2	right	M	MF017.jpg	MF018.jpg	white	latino
57.75972149986774	0.5066525000147521	ISI	n/a	n/a	n/a	M	MF017.jpg	MF018.jpg	white	latino
58.26643469999544	1.0159645997919142	feedback_social_loss_neutral	n/a	n/a	n/a	M	MF017.jpg	MF018.jpg	white	latino
59.28251579985954	2.000470200087875	ITI	n/a	n/a	n/a	M	MF017.jpg	MF018.jpg	white	latino
61.2914380999282	2.501424999907613	decision_social_win	1.3364824000746012	2	right	M	MF035.jpg	MF036.jpg	latino	black
63.79303059983067	2.0066500001121312	ISI	n/a	n/a	n/a	M	MF035.jpg	MF036.jpg	latino	black
65.7997387999203	1.0160890999250114	feedback_social_win_positive	n/a	n/a	n/a	M	MF035.jpg	MF036.jpg	latino	black
66.81594010000117	5.000411899993196	ITI	n/a	n/a	n/a	M	MF035.jpg	MF036.jpg	latino	black
71.824876899831	2.5017021000385284	decision_social_win	1.0860298001207411	2	right	M	MF029.jpg	MF030.jpg	white	black
74.32674609986134	0.5062351999804378	ISI	n/a	n/a	n/a	M	MF029.jpg	MF030.jpg	white	black
74.83303849981166	1.0158149001654238	feedback_social_win_positive	n/a	n/a	n/a	M	MF029.jpg	MF030.jpg	white	black
75.84896550001577	1.0005099999252707	ITI	n/a	n/a	n/a	M	MF029.jpg	MF030.jpg	white	black
76.89076919993386	2.5016413999255747	decision_social_loss	1.1700839998666197	7	left	F	FF015.jpg	FF016.jpg	black	asian
79.39258209988475	0.5071165000554174	ISI	n/a	n/a	n/a	F	FF015.jpg	FF016.jpg	black	asian
79.89975709980354	1.0160340000875294	feedback_social_loss_neutral	n/a	n/a	n/a	F	FF015.jpg	FF016.jpg	black	asian
80.9159001999069	1.000444500008598	ITI	n/a	n/a	n/a	F	FF015.jpg	FF016.jpg	black	asian
81.92430639988743	2.5009788000024855	decision_social_win	1.1695669000037014	2	right	F	FF041.jpg	FF042.jpg	latino	white
84.42545579979196	0.5076037000399083	ISI	n/a	n/a	n/a	F	FF041.jpg	FF042.jpg	latino	white
84.93311919993721	1.0159998000599444	feedback_social_win_positive	n/a	n/a	n/a	F	FF041.jpg	FF042.jpg	latino	white
85.94923189980909	3.000448300037533	ITI	n/a	n/a	n/a	F	FF041.jpg	FF042.jpg	latino	white
88.95769750000909	2.5012356999795884	decision_social_loss	1.053259499836713	2	right	F	FF019.jpg	FF020.jpg	latino	asian
91.4591043998953	1.007253299932927	ISI	n/a	n/a	n/a	F	FF019.jpg	FF020.jpg	latino	asian
92.4664164998103	1.0159301001112908	feedback_social_loss_neutral	n/a	n/a	n/a	F	FF019.jpg	FF020.jpg	latino	asian
93.48246349999681	1.0004394999705255	ITI	n/a	n/a	n/a	F	FF019.jpg	FF020.jpg	latino	asian
94.49122849991545	2.501092999940738	decision_social_win	1.268320200033486	2	right	M	MF023.jpg	MF024.jpg	black	asian
96.99257689993829	2.0069868999999017	ISI	n/a	n/a	n/a	M	MF023.jpg	MF024.jpg	black	asian
98.9996234998107	1.0161051000468433	feedback_social_win_neutral	n/a	n/a	n/a	M	MF023.jpg	MF024.jpg	black	asian
100.01584729994647	2.0004534998442978	ITI	n/a	n/a	n/a	M	MF023.jpg	MF024.jpg	black	asian
102.0244192997925	2.500442100223154	decision_social_win	1.2033575000241399	7	left	F	FF021.jpg	FF022.jpg	black	latino
104.52503359992988	0.5078298998996615	ISI	n/a	n/a	n/a	F	FF021.jpg	FF022.jpg	black	latino
105.03292339993641	1.0161858000792563	feedback_social_win_neutral	n/a	n/a	n/a	F	FF021.jpg	FF022.jpg	black	latino
106.0492246998474	3.0002520999405533	ITI	n/a	n/a	n/a	F	FF021.jpg	FF022.jpg	black	latino
109.05767239979468	2.5021239002235234	decision_social_loss	1.2033232001122087	2	right	M	MF009.jpg	MF010.jpg	latino	asian
111.5599713998381	0.5063181000296026	ISI	n/a	n/a	n/a	M	MF009.jpg	MF010.jpg	latino	asian
112.06634739995934	1.0159813999198377	feedback_social_loss_negative	n/a	n/a	n/a	M	MF009.jpg	MF010.jpg	latino	asian
113.08244729996659	1.0008694999851286	ITI	n/a	n/a	n/a	M	MF009.jpg	MF010.jpg	latino	asian
114.09165289998055	2.501305299811065	decision_social_loss	1.5848371998872608	2	right	M	MF019.jpg	MF020.jpg	white	latino
116.59317439980805	1.0064821001142263	ISI	n/a	n/a	n/a	M	MF019.jpg	MF020.jpg	white	latino
117.59971769992262	1.0160952999722213	feedback_social_loss_neutral	n/a	n/a	n/a	M	MF019.jpg	MF020.jpg	white	latino
118.61593099986203	1.0005688001401722	ITI	n/a	n/a	n/a	M	MF019.jpg	MF020.jpg	white	latino
119.62474929983728	2.500713000074029	decision_social_win	1.5361266999971122	2	right	F	FF039.jpg	FF040.jpg	white	black
122.12563169980422	1.5071843001060188	ISI	n/a	n/a	n/a	F	FF039.jpg	FF040.jpg	white	black
123.63287410000339	1.0161435999907553	feedback_social_win_positive	n/a	n/a	n/a	F	FF039.jpg	FF040.jpg	white	black
124.64913609996438	1.0004816998261958	ITI	n/a	n/a	n/a	F	FF039.jpg	FF040.jpg	white	black
125.65793280000798	2.5019931998103857	decision_social_win	1.5867666997946799	7	left	M	MF027.jpg	MF028.jpg	white	black
128.1600977999624	0.5062839998863637	ISI	n/a	n/a	n/a	M	MF027.jpg	MF028.jpg	white	black
128.66645969985984	1.0158586001489311	feedback_social_win_neutral	n/a	n/a	n/a	M	MF027.jpg	MF028.jpg	white	black
129.68244559993036	3.0003853000234812	ITI	n/a	n/a	n/a	M	MF027.jpg	MF028.jpg	white	black
132.69138619978912	2.50104370014742	decision_social_loss	1.3357246001251042	2	right	M	MF003.jpg	MF004.jpg	latino	white
135.19260609988123	2.007808400085196	ISI	n/a	n/a	n/a	M	MF003.jpg	MF004.jpg	latino	white
137.2004773998633	1.0150315000209957	feedback_social_loss_negative	n/a	n/a	n/a	M	MF003.jpg	MF004.jpg	latino	white
138.2156318000052	3.000505500007421	ITI	n/a	n/a	n/a	M	MF003.jpg	MF004.jpg	latino	white
141.22489349986427	2.5015863000880927	decision_social_win	1.1849152001086622	7	left	M	MF037.jpg	MF038.jpg	asian	latino
143.7266599999275	0.5061740998644382	ISI	n/a	n/a	n/a	M	MF037.jpg	MF038.jpg	asian	latino
144.2328929998912	1.01613839995116	feedback_social_win_positive	n/a	n/a	n/a	M	MF037.jpg	MF038.jpg	asian	latino
145.24935009982437	1.0002576000988483	ITI	n/a	n/a	n/a	M	MF037.jpg	MF038.jpg	asian	latino
146.25777759985067	2.5010472000576556	decision_social_win	1.385913500096649	2	right	F	FF031.jpg	FF032.jpg	latino	black
148.7589999998454	1.007242300081998	ISI	n/a	n/a	n/a	F	FF031.jpg	FF032.jpg	latino	black
149.7663030999247	1.0159424000885338	feedback_social_win_positive	n/a	n/a	n/a	F	FF031.jpg	FF032.jpg	latino	black
150.7823673998937	5.00040109991096	ITI	n/a	n/a	n/a	F	FF031.jpg	FF032.jpg	latino	black
155.79130439995788	2.5011225000489503	decision_social_loss	1.386537899961695	2	right	M	MF005.jpg	MF006.jpg	white	black
158.29261949984357	0.5068538000341505	ISI	n/a	n/a	n/a	M	MF005.jpg	MF006.jpg	white	black
158.79953359998763	1.0161267998628318	feedback_social_loss_negative	n/a	n/a	n/a	M	MF005.jpg	MF006.jpg	white	black
159.81578639987856	3.0004334000404924	ITI	n/a	n/a	n/a	M	MF005.jpg	MF006.jpg	white	black
162.82435689982958	2.5014854001346976	decision_social_loss	1.2855114999692887	7	left	F	FF009.jpg	FF010.jpg	asian	white
165.32602209993638	0.5067274998873472	ISI	n/a	n/a	n/a	F	FF009.jpg	FF010.jpg	asian	white
165.83281039982103	1.0161777001339942	feedback_social_loss_negative	n/a	n/a	n/a	F	FF009.jpg	FF010.jpg	asian	white
166.84911349997856	1.0004075998440385	ITI	n/a	n/a	n/a	F	FF009.jpg	FF010.jpg	asian	white
167.85826439992525	2.5011471998877823	decision_social_loss	1.5355362000409514	7	left	F	FF017.jpg	FF018.jpg	asian	asian
170.35959629993886	2.0066076999064535	ISI	n/a	n/a	n/a	F	FF017.jpg	FF018.jpg	asian	asian
172.36626429995522	1.0159408999606967	feedback_social_loss_neutral	n/a	n/a	n/a	F	FF017.jpg	FF018.jpg	asian	asian
173.38233089982532	1.0004481000360101	ITI	n/a	n/a	n/a	F	FF017.jpg	FF018.jpg	asian	asian
174.39116809982806	2.5006816000677645	decision_social_loss	1.3855854000430554	2	right	M	MF001.jpg	MF002.jpg	black	asian
176.89203049987555	0.5081653001252562	ISI	n/a	n/a	n/a	M	MF001.jpg	MF002.jpg	black	asian
177.40025769989006	1.0153874999377877	feedback_social_loss_negative	n/a	n/a	n/a	M	MF001.jpg	MF002.jpg	black	asian
178.4157751998864	2.0003420000430197	ITI	n/a	n/a	n/a	M	MF001.jpg	MF002.jpg	black	asian
180.4245289999526	2.5008981998544186	decision_social_win	1.2852674999739975	7	left	M	MF033.jpg	MF034.jpg	white	latino
182.92560600000434	0.5070710999425501	ISI	n/a	n/a	n/a	M	MF033.jpg	MF034.jpg	white	latino
183.43274359987117	1.0161619000136852	feedback_social_win_positive	n/a	n/a	n/a	M	MF033.jpg	MF034.jpg	white	latino
184.4490479999222	1.0004092000890523	ITI	n/a	n/a	n/a	M	MF033.jpg	MF034.jpg	white	latino
185.45800350001082	2.500933300005272	decision_social_loss	1.6198825999163091	2	right	F	FF013.jpg	FF014.jpg	white	black
187.95912229991518	2.0069806000683457	ISI	n/a	n/a	n/a	F	FF013.jpg	FF014.jpg	white	black
189.96616019983776	1.0161172000225633	feedback_social_loss_negative	n/a	n/a	n/a	F	FF013.jpg	FF014.jpg	white	black
190.98241579998285	1.0003896998241544	ITI	n/a	n/a	n/a	F	FF013.jpg	FF014.jpg	white	black
191.99132069991902	2.5012497000861913	decision_social_win	1.3865062000695616	2	right	F	FF027.jpg	FF028.jpg	latino	asian
194.49275489989668	1.006646600086242	ISI	n/a	n/a	n/a	F	FF027.jpg	FF028.jpg	latino	asian
195.49946049996652	1.0161096998490393	feedback_social_win_neutral	n/a	n/a	n/a	F	FF027.jpg	FF028.jpg	latino	asian
196.51570009998977	2.0002919000107795	ITI	n/a	n/a	n/a	F	FF027.jpg	FF028.jpg	latino	asian
198.5243991999887	2.5020328999962658	decision_social_win	1.36833729990758	7	left	F	FF037.jpg	FF038.jpg	latino	latino
201.0266193000134	0.5064508998766541	ISI	n/a	n/a	n/a	F	FF037.jpg	FF038.jpg	latino	latino
201.53313210001215	1.015786699950695	feedback_social_win_positive	n/a	n/a	n/a	F	FF037.jpg	FF038.jpg	latino	latino
202.54905379982665	4.000483400188386	ITI	n/a	n/a	n/a	F	FF037.jpg	FF038.jpg	latino	latino
206.5582979999017	2.501236400101334	decision_social_win	1.3017061001155525	2	right	F	FF035.jpg	FF036.jpg	latino	black
209.05972859985195	0.5063718999736011	ISI	n/a	n/a	n/a	F	FF035.jpg	FF036.jpg	latino	black
209.56615969981067	1.0160217001102865	feedback_social_win_positive	n/a	n/a	n/a	F	FF035.jpg	FF036.jpg	latino	black
210.58233189978637	1.0002709000837058	ITI	n/a	n/a	n/a	F	FF035.jpg	FF036.jpg	latino	black
211.5910860998556	2.5023527001030743	decision_social_win	1.5017830000724643	2	right	F	FF029.jpg	FF030.jpg	asian	white
214.0936272998806	0.5058363999705762	ISI	n/a	n/a	n/a	F	FF029.jpg	FF030.jpg	asian	white
214.59952929988503	1.015948100015521	feedback_social_win_positive	n/a	n/a	n/a	F	FF029.jpg	FF030.jpg	asian	white
215.61561089986935	1.000334900105372	ITI	n/a	n/a	n/a	F	FF029.jpg	FF030.jpg	asian	white
216.62477809982374	2.5005909001920372	decision_social_loss	1.6017856001853943	2	right	F	FF005.jpg	FF006.jpg	white	asian
219.12555260001682	1.507344099925831	ISI	n/a	n/a	n/a	F	FF005.jpg	FF006.jpg	white	asian
220.63295589992777	1.0159171998966485	feedback_social_loss_negative	n/a	n/a	n/a	F	FF005.jpg	FF006.jpg	white	asian
221.64900569990277	5.000397600000724	ITI	n/a	n/a	n/a	F	FF005.jpg	FF006.jpg	white	asian
226.65810050000437	2.5012835999950767	decision_social_loss	1.6856658000033349	7	left	M	MF011.jpg	MF012.jpg	latino	black
229.15957119991072	0.5064896000549197	ISI	n/a	n/a	n/a	M	MF011.jpg	MF012.jpg	latino	black
229.6661213999614	1.01597879990004	feedback_social_loss_negative	n/a	n/a	n/a	M	MF011.jpg	MF012.jpg	latino	black
230.68223339994438	4.000364299863577	ITI	n/a	n/a	n/a	M	MF011.jpg	MF012.jpg	latino	black
234.6912408999633	2.5011547999456525	decision_social_loss	1.6515983999706805	7	left	M	MF021.jpg	MF022.jpg	black	latino
237.1925844999496	0.5069394998718053	ISI	n/a	n/a	n/a	M	MF021.jpg	MF022.jpg	black	latino
237.69958379981108	1.015818600077182	feedback_social_loss_neutral	n/a	n/a	n/a	M	MF021.jpg	MF022.jpg	black	latino
238.7155365999788	1.0004757998976856	ITI	n/a	n/a	n/a	M	MF021.jpg	MF022.jpg	black	latino
239.72454719990492	2.50090069998987	decision_social_loss	2.053283599903807	2	right	F	FF003.jpg	FF004.jpg	black	white
242.2256439998746	1.5070497000124305	ISI	n/a	n/a	n/a	F	FF003.jpg	FF004.jpg	black	white
243.7327524998691	1.0160682001151145	feedback_social_loss_negative	n/a	n/a	n/a	F	FF003.jpg	FF004.jpg	black	white
244.74895529984497	4.000373500166461	ITI	n/a	n/a	n/a	F	FF003.jpg	FF004.jpg	black	white
248.75790889980271	2.5016212000045925	decision_social_win	1.6348250000737607	7	left	F	FF033.jpg	FF034.jpg	black	white
251.25972489989363	1.5063287001103163	ISI	n/a	n/a	n/a	F	FF033.jpg	FF034.jpg	black	white
252.7661136998795	1.0159716999623924	feedback_social_win_positive	n/a	n/a	n/a	F	FF033.jpg	FF034.jpg	black	white
253.78221799992025	3.0003545000217855	ITI	n/a	n/a	n/a	F	FF033.jpg	FF034.jpg	black	white
256.7913108000066	2.50106929987669	decision_social_loss	1.5864854999817908	2	right	M	MF013.jpg	MF014.jpg	latino	asian
259.29256959981285	0.5068006000947207	ISI	n/a	n/a	n/a	M	MF013.jpg	MF014.jpg	latino	asian
259.7994280999992	1.016027599805966	feedback_social_loss_negative	n/a	n/a	n/a	M	MF013.jpg	MF014.jpg	latino	asian
260.81559259979986	2.0003951000981033	ITI	n/a	n/a	n/a	M	MF013.jpg	MF014.jpg	latino	asian
262.8253769997973	2.5010030001867563	decision_social_loss	1.368391000200063	2	right	M	MF007.jpg	MF008.jpg	asian	white
265.32657529995777	2.0061003000009805	ISI	n/a	n/a	n/a	M	MF007.jpg	MF008.jpg	asian	white
267.3327377999667	1.016087899915874	feedback_social_loss_negative	n/a	n/a	n/a	M	MF007.jpg	MF008.jpg	asian	white
268.34898209990934	4.000352700008079	ITI	n/a	n/a	n/a	M	MF007.jpg	MF008.jpg	asian	white
272.35800279979594	2.5017604001332074	decision_social_loss	1.2528226000722498	2	right	F	FF007.jpg	FF008.jpg	asian	black
274.85995680000633	0.5060191999655217	ISI	n/a	n/a	n/a	F	FF007.jpg	FF008.jpg	asian	black
275.366036699852	1.0159716000780463	feedback_social_loss_negative	n/a	n/a	n/a	F	FF007.jpg	FF008.jpg	asian	black
276.3821480998304	3.0002775001339614	ITI	n/a	n/a	n/a	F	FF007.jpg	FF008.jpg	asian	black
279.3911858999636	2.5010518999770284	decision_social_win	1.4863046000245959	7	left	F	FF025.jpg	FF026.jpg	black	latino
281.8924318999052	0.5069182999432087	ISI	n/a	n/a	n/a	F	FF025.jpg	FF026.jpg	black	latino
282.39940889994614	1.015980700030923	feedback_social_win_neutral	n/a	n/a	n/a	F	FF025.jpg	FF026.jpg	black	latino
283.4155305000022	3.000398200005293	ITI	n/a	n/a	n/a	F	FF025.jpg	FF026.jpg	black	latino
286.4245978000108	2.50192609988153	decision_social_win	1.2192990998737514	2	right	M	MF025.jpg	MF026.jpg	white	asian
288.92671839985996	0.5057926001027226	ISI	n/a	n/a	n/a	M	MF025.jpg	MF026.jpg	white	asian
289.4325706998352	1.0160783000756055	feedback_social_win_neutral	n/a	n/a	n/a	M	MF025.jpg	MF026.jpg	white	asian
290.4488015999086	6.000286299968138	ITI	n/a	n/a	n/a	M	MF025.jpg	MF026.jpg	white	asian
