onset	duration	trial_type	rt	resp	selection	gender	image	image_type
0.0	1.0	ISI	n/a	n/a	n/a	n/a	n/a	n/a
1.0205817000005482	2.7594601000000694	decision_monetary	2.75908999999956	8	predict_win	D	DD008.jpg	blue
3.7804102999998577	1.2567894000003434	ISI	n/a	n/a	n/a	D	DD008.jpg	blue
5.042070000000422	2.764003700000103	decision_monetary_MISSED	missed	missed	missed	D	DD005.jpg	brown
7.806514200000493	3.2514995999999883	ISI	0.1675121999996918	0	predict_neutral	D	DD005.jpg	brown
11.062406800000645	2.7513881999993828	decision_monetary	1.8416208999997252	0	predict_neutral	D	DD004.jpg	blue
13.814150199999858	3.0161261000002924	ISI	n/a	n/a	n/a	D	DD004.jpg	blue
16.83547439999984	2.751632299999983	decision_monetary	1.8242611000005127	1	recall_win	D	DD013.jpg	brown
19.58746810000048	2.764044300000023	ISI	n/a	n/a	n/a	D	DD013.jpg	brown
22.356246199999987	2.7507572000004075	decision_monetary	2.542261900000085	9	predict_loss	S	SD003.jpg	yellow
25.107357900000352	2.515181400000074	ISI	n/a	n/a	n/a	S	SD003.jpg	yellow
27.627274500000567	2.7505999999993946	decision_monetary	2.640886999999566	0	predict_neutral	S	SD028.jpg	grey
30.37823170000047	1.7647173999994266	ISI	n/a	n/a	n/a	S	SD028.jpg	grey
32.14771259999998	2.7510872000002564	decision_monetary	2.692253900000651	0	predict_neutral	D	DD028.jpg	red
34.899152300000424	1.263765799999419	ISI	n/a	n/a	n/a	D	DD028.jpg	red
36.167648600000575	2.7644075999996858	decision_monetary_MISSED	missed	missed	missed	D	DD023.jpg	blue
38.932434600000306	2.501669799999945	ISI	n/a	n/a	n/a	D	DD023.jpg	blue
41.43891870000061	2.7639626000000135	decision_monetary_MISSED	missed	missed	missed	S	SD009.jpg	blue
44.20323110000027	2.001260199999706	ISI	n/a	n/a	n/a	S	SD009.jpg	blue
46.209270299999844	2.7641913000006753	decision_monetary_MISSED	missed	missed	missed	S	SD001.jpg	green
48.97380239999984	1.000377400000616	ISI	n/a	n/a	n/a	S	SD001.jpg	green
49.979046800000106	2.751736400000482	decision_monetary	1.1903111000001445	8	predict_win	S	SD025.jpg	green
52.731126399999994	5.750358700000106	ISI	n/a	n/a	n/a	S	SD025.jpg	green
58.48635809999996	2.751411900000676	decision_monetary	0.8056731000006039	9	predict_loss	S	SD024.jpg	blue
61.238147500000196	1.0129266000003554	ISI	n/a	n/a	n/a	S	SD024.jpg	blue
62.255967600000076	2.7506862999998702	decision_monetary	2.190511900000274	0	predict_neutral	D	DD036.jpg	brown
65.00703060000069	1.2640480999998545	ISI	n/a	n/a	n/a	D	DD036.jpg	brown
66.27624110000033	2.7637323999997534	decision_monetary_MISSED	missed	missed	missed	D	DD034.jpg	purple
69.0403167000004	2.00138220000008	ISI	n/a	n/a	n/a	D	DD034.jpg	purple
71.04645680000067	2.751459499999328	decision_monetary	1.8740002999993521	1	recall_win	S	SD023.jpg	blue
73.7982890000003	1.5135582000002614	ISI	n/a	n/a	n/a	S	SD023.jpg	blue
75.3167140000005	2.750560899999982	decision_monetary	2.125203099999453	8	predict_win	S	SD040.jpg	brown
78.06763320000027	6.501840400000219	ISI	n/a	n/a	n/a	S	SD040.jpg	brown
84.57465130000037	2.7519720000000234	decision_monetary	1.6897362999998222	9	predict_loss	S	SD014.jpg	black
87.32697749999988	2.7637117000003855	ISI	n/a	n/a	n/a	S	SD014.jpg	black
90.0954741000005	2.751299200000176	decision_monetary	1.8913555999997698	9	predict_loss	D	DD030.jpg	brown
92.84712240000044	6.251087099999495	ISI	n/a	n/a	n/a	D	DD030.jpg	brown
99.10318880000068	2.752046299999165	decision_monetary	2.0738320999998905	2	recall_loss	D	DD020.jpg	brown
101.85557890000018	1.5128168000001097	ISI	n/a	n/a	n/a	D	DD020.jpg	brown
103.37330250000014	2.764043799999854	decision_monetary_MISSED	missed	missed	missed	S	SD010.jpg	yellow
106.13769730000058	3.000115399999231	ISI	0.1336046999995233	0	predict_neutral	S	SD010.jpg	yellow
109.14251930000046	2.750444599999355	decision_monetary	1.8102271999996447	0	predict_neutral	D	DD042.jpg	brown
111.89331880000009	3.751833799999986	ISI	n/a	n/a	n/a	D	DD042.jpg	brown
115.65012730000035	2.7508199000003515	decision_monetary	2.2237624999997934	9	predict_loss	S	SD034.jpg	red
118.40130270000009	3.0152936000004047	ISI	n/a	n/a	n/a	S	SD034.jpg	red
121.42143900000065	2.751033799999277	decision_monetary	1.9415865999999369	8	predict_win	S	SD022.jpg	red
124.17282410000007	2.7649953000000096	ISI	n/a	n/a	n/a	S	SD022.jpg	red
126.94281420000061	2.7517140999998446	decision_monetary	1.406739099999868	9	predict_loss	D	DD010.jpg	green
129.69488510000065	1.7633435999996436	ISI	n/a	n/a	n/a	D	DD010.jpg	green
131.46320650000052	2.76392450000003	decision_monetary_MISSED	missed	missed	missed	S	SD008.jpg	blue
134.22755349999989	1.2517271000006076	ISI	0.03386000000045897	8	predict_win	S	SD008.jpg	blue
135.48411870000018	2.75079900000037	decision_monetary	1.9228879000002053	8	predict_win	S	SD006.jpg	black
138.23526500000025	3.765036300000247	ISI	n/a	n/a	n/a	S	SD006.jpg	black
142.00522009999986	2.7504297000004954	decision_monetary	2.492030000000341	8	predict_win	S	SD004.jpg	white
144.7560082	2.264692200000354	ISI	n/a	n/a	n/a	S	SD004.jpg	white
147.02566019999995	2.7504957999999533	decision_monetary	2.357962800000678	8	predict_win	D	DD011.jpg	brown
149.77651229999992	1.5146627000003718	ISI	n/a	n/a	n/a	D	DD011.jpg	brown
151.29621540000062	2.751660699999775	decision_monetary	1.9411013999997522	1	recall_win	D	DD007.jpg	blue
154.0482265999999	2.5140094000007593	ISI	n/a	n/a	n/a	D	DD007.jpg	blue
156.5671069	2.7508621000006315	decision_monetary	2.642151300000478	0	predict_neutral	D	DD032.jpg	red
159.31831330000023	4.016231300000072	ISI	n/a	n/a	n/a	D	DD032.jpg	red
163.33958170000005	2.7507401000002574	decision_monetary	1.7908612000001085	9	predict_loss	S	SD033.jpg	brown
166.09066990000065	1.0136058999996749	ISI	n/a	n/a	n/a	S	SD033.jpg	brown
167.10933540000042	2.751433499999621	decision_monetary	1.4734270999997534	0	predict_neutral	D	DD016.jpg	brown
169.86112860000048	1.0129514999998719	ISI	n/a	n/a	n/a	D	DD016.jpg	brown
170.8791538000005	2.7519760999994105	decision_monetary	2.023352299999715	8	predict_win	S	SD019.jpg	brown
173.6314751	5.766282800000226	ISI	n/a	n/a	n/a	S	SD019.jpg	brown
179.40278040000067	2.7516107999999804	decision_monetary	1.2231628999998065	0	predict_neutral	D	DD015.jpg	blue
182.1547395000007	6.500674699999763	ISI	n/a	n/a	n/a	D	DD015.jpg	blue
188.6604371000003	2.750359099999514	decision_monetary	1.8579583999999159	8	predict_win	S	SD007.jpg	brown
191.41115270000046	1.2641656999994666	ISI	n/a	n/a	n/a	S	SD007.jpg	brown
192.68041200000062	2.752172299999984	decision_monetary	1.874303399999917	9	predict_loss	S	SD029.jpg	black
195.43293780000022	1.512638600000173	ISI	n/a	n/a	n/a	S	SD029.jpg	black
196.95067560000007	2.752362500000345	decision_monetary	2.2739605000006122	0	predict_neutral	S	SD035.jpg	blue
199.70339270000022	6.266264500000034	ISI	n/a	n/a	n/a	S	SD035.jpg	blue
205.9747092000007	2.7638693999997486	decision_monetary_MISSED	missed	missed	missed	D	DD009.jpg	white
208.73892140000044	3.752753499999926	ISI	n/a	n/a	n/a	D	DD009.jpg	white
212.49680070000068	2.752195000000029	decision_monetary	1.9237364999999045	9	predict_loss	S	SD038.jpg	brown
215.24934250000024	2.2631615999998758	ISI	n/a	n/a	n/a	S	SD038.jpg	brown
217.51763889999984	2.7508883000000424	decision_monetary	2.0737969000001613	0	predict_neutral	D	DD026.jpg	white
220.26888020000024	2.764806199999839	ISI	n/a	n/a	n/a	D	DD026.jpg	white
223.03880730000037	2.752198099999987	decision_monetary	1.7080270999995264	8	predict_win	S	SD020.jpg	green
225.79135190000034	5.766080899999906	ISI	n/a	n/a	n/a	S	SD020.jpg	green
231.56261340000037	2.751684799999566	decision_monetary	1.4075032000000647	9	predict_loss	S	SD013.jpg	blue
234.31465560000015	1.5130738999996538	ISI	n/a	n/a	n/a	S	SD013.jpg	blue
235.83284960000037	2.7636930999997276	decision_monetary_MISSED	missed	missed	missed	D	DD031.jpg	pink
238.59688800000004	1.251808699999856	ISI	0.050593599999956496	8	predict_win	D	DD031.jpg	pink
239.85362720000012	2.7516168000001926	decision_monetary	1.556456999999682	0	predict_neutral	S	SD017.jpg	blue
242.6055948000003	1.011757999999645	ISI	n/a	n/a	n/a	S	SD017.jpg	blue
243.62254570000005	2.7515832999997656	decision_monetary	2.373560200000611	0	predict_neutral	S	SD041.jpg	brown
246.3744760999998	2.5139842000007775	ISI	n/a	n/a	n/a	S	SD041.jpg	brown
248.89366880000034	2.750972799999545	decision_monetary	1.8900824000002103	8	predict_win	D	DD019.jpg	blue
251.64499119999982	1.0131663000001936	ISI	n/a	n/a	n/a	D	DD019.jpg	blue
252.66346390000035	2.7520997999999963	decision_monetary	2.524157500000001	0	predict_neutral	S	SD012.jpg	brown
255.41591400000016	3.263944999999694	ISI	n/a	n/a	n/a	S	SD012.jpg	brown
258.68501900000047	2.7521335000001272	decision_monetary	2.2913973999993686	1	recall_win	D	DD001.jpg	blue
261.43751130000055	2.012920999999551	ISI	n/a	n/a	n/a	D	DD001.jpg	blue
263.45583110000007	2.7512917000003654	decision_monetary	1.5064110000002984	0	predict_neutral	D	DD025.jpg	brown
266.20748249999997	1.5127797000004648	ISI	n/a	n/a	n/a	D	DD025.jpg	brown
267.72565769999983	2.7505078000003778	decision_monetary	1.5235581000006277	9	predict_loss	S	SD026.jpg	gray
270.47652000000016	4.016380400000344	ISI	n/a	n/a	n/a	S	SD026.jpg	gray
274.49809060000007	2.7515306000004784	decision_monetary	1.1897016000002623	8	predict_win	D	DD029.jpg	brown
277.24998270000015	3.7648387999997794	ISI	n/a	n/a	n/a	D	DD029.jpg	brown
281.0201147000007	2.752318299999388	decision_monetary	1.7240340999996988	0	predict_neutral	D	DD002.jpg	brown
283.7727883000007	1.2619670999993104	ISI	n/a	n/a	n/a	D	DD002.jpg	brown
285.0400214000001	2.7515416000005644	decision_monetary	0.9725055999997494	9	predict_loss	S	SD031.jpg	red
287.7919116000003	2.0136923999998544	ISI	n/a	n/a	n/a	S	SD031.jpg	red
289.81103299999995	2.751771600000211	decision_monetary	1.2556410000006508	8	predict_win	S	SD005.jpg	black
292.56316060000063	3.514087099999415	ISI	n/a	n/a	n/a	S	SD005.jpg	black
296.0825106000002	2.7506007000001773	decision_monetary	1.489884599999641	0	predict_neutral	D	DD014.jpg	green
298.8334596000004	2.765093999999408	ISI	n/a	n/a	n/a	D	DD014.jpg	green
301.6037885000005	2.751138199999332	decision_monetary	2.140298199999961	8	predict_win	S	SD042.jpg	purple
304.3552844000005	6.00062269999944	ISI	n/a	n/a	n/a	S	SD042.jpg	purple
310.3611312000003	2.751704199999949	decision_monetary	0.9068489999999656	0	predict_neutral	D	DD003.jpg	green
313.11318800000026	5.516020899999603	ISI	n/a	n/a	n/a	D	DD003.jpg	green
318.63447520000045	2.750662700000248	decision_monetary	0.8736828000000969	0	predict_neutral	D	DD041.jpg	brown
321.3855115000006	3.265519999999924	ISI	n/a	n/a	n/a	D	DD041.jpg	brown
324.65624149999985	2.7509649000003265	decision_monetary	1.4397145000002638	0	predict_neutral	S	SD018.jpg	green
327.4075542999999	1.263324300000022	ISI	n/a	n/a	n/a	S	SD018.jpg	green
328.6763658	2.7513407000005827	decision_monetary	1.757528099999945	0	predict_neutral	D	DD024.jpg	white
331.4280617000004	1.0124897999994573	ISI	n/a	n/a	n/a	D	DD024.jpg	white
332.44588060000024	2.75153279999995	decision_monetary	1.457533599999806	9	predict_loss	S	SD036.jpg	black
335.1977606999999	5.015956300000653	ISI	n/a	n/a	n/a	S	SD036.jpg	black
340.21930800000064	2.751909099999466	decision_monetary	2.306815099999767	8	predict_win	D	DD017.jpg	red
342.97156600000017	1.0119299999996656	ISI	n/a	n/a	n/a	D	DD017.jpg	red
343.9889363000002	2.7514202000002115	decision_monetary	1.472968099999889	9	predict_loss	S	SD030.jpg	red
346.74070650000067	2.7640033999996376	ISI	n/a	n/a	n/a	S	SD030.jpg	red
349.5104277999999	2.7516503000006196	decision_monetary	1.2391145000001416	0	predict_neutral	D	DD012.jpg	brown
352.2624267000001	1.5124684000002162	ISI	n/a	n/a	n/a	D	DD012.jpg	brown
353.7802797000004	2.7514949999995224	decision_monetary	1.5240871999994852	0	predict_neutral	S	SD027.jpg	green
356.53212500000063	2.015747899999951	ISI	n/a	n/a	n/a	S	SD027.jpg	green
358.55467080000017	2.750907200000256	decision_monetary	2.621255000000019	2	recall_loss	D	DD022.jpg	blue
361.30593540000064	3.0110138999998526	ISI	n/a	n/a	n/a	D	DD022.jpg	blue
364.32239220000065	2.7506790999996156	decision_monetary	1.9734613999999056	0	predict_neutral	D	DD037.jpg	brown
367.07342040000003	1.763915100000304	ISI	n/a	n/a	n/a	D	DD037.jpg	brown
368.8428651000004	2.7504656000000978	decision_monetary	1.8238516000001255	0	predict_neutral	S	SD015.jpg	yellow
371.5936786000002	1.263643399999637	ISI	n/a	n/a	n/a	S	SD015.jpg	yellow
372.86279960000047	2.75090739999996	decision_monetary	1.4562660999999935	9	predict_loss	D	DD006.jpg	brown
375.61421169999994	2.263960500000394	ISI	n/a	n/a	n/a	D	DD006.jpg	brown
377.88363560000016	2.751010099999803	decision_monetary	1.7573568999996496	0	predict_neutral	S	SD011.jpg	blue
380.63500010000007	2.2639397000002646	ISI	n/a	n/a	n/a	S	SD011.jpg	blue
382.9044638000005	2.7634194000002026	decision_monetary_MISSED	missed	missed	missed	S	SD002.jpg	purple
385.6682516999999	1.0004785999999513	ISI	n/a	n/a	n/a	S	SD002.jpg	purple
386.6743105000005	2.7509555999995428	decision_monetary	2.2741194999998697	9	predict_loss	D	DD018.jpg	brown
389.4256221000005	1.7634735999999975	ISI	n/a	n/a	n/a	D	DD018.jpg	brown
391.1945645000005	2.7513668999999936	decision_monetary	1.5725660999996762	8	predict_win	S	SD032.jpg	purple
393.946277	2.0137943999998242	ISI	n/a	n/a	n/a	S	SD032.jpg	purple
395.9655642000007	2.7522234999996726	decision_monetary	1.2557668999997986	9	predict_loss	D	DD040.jpg	black
398.7181442000001	1.2615824000004068	ISI	n/a	n/a	n/a	D	DD040.jpg	black
399.98526500000025	2.751718399999845	decision_monetary	2.7078184000001784	8	predict_win	D	DD039.jpg	white
402.7373398	4.515081100000316	ISI	n/a	n/a	n/a	D	DD039.jpg	white
407.2579732000004	2.7516905000002225	decision_monetary	0.9400250999997297	0	predict_neutral	D	DD035.jpg	brown
410.0100084000005	3.764325999999528	ISI	n/a	n/a	n/a	D	DD035.jpg	brown
413.7799058999999	2.7515676000002713	decision_monetary	0.888776499999949	8	predict_win	S	SD021.jpg	blue
416.5318244	5.5157278000006045	ISI	n/a	n/a	n/a	S	SD021.jpg	blue
422.0531940999999	2.752029400000538	decision_monetary	1.8073389999999563	8	predict_win	D	DD021.jpg	red
424.80557450000015	1.7627786000002743	ISI	n/a	n/a	n/a	D	DD021.jpg	red
426.5740845	2.7511496000006446	decision_monetary	2.2076059999999416	8	predict_win	D	DD027.jpg	blue
429.32558940000035	4.765582400000312	ISI	n/a	n/a	n/a	D	DD027.jpg	blue
434.0967774999999	2.7514789000006203	decision_monetary	1.722707700000683	0	predict_neutral	D	DD033.jpg	red
436.8486072000005	1.0123290000001361	ISI	n/a	n/a	n/a	D	DD033.jpg	red
437.86672780000026	2.750686399999722	decision_monetary	1.973676599999635	9	predict_loss	S	SD037.jpg	red
440.61776890000056	3.0146028999997725	ISI	n/a	n/a	n/a	S	SD037.jpg	red
443.638379	2.7505645999999615	decision_monetary	1.6068408000001	9	predict_loss	D	DD038.jpg	brown
446.3892950999998	6.502396100000624	ISI	n/a	n/a	n/a	D	DD038.jpg	brown
452.8974653000005	2.7513303999994605	decision_monetary	2.1544182999996337	8	predict_win	S	SD016.jpg	brown
455.64914690000023	5.265559700000267	ISI	n/a	n/a	n/a	S	SD016.jpg	brown
460.92144310000003	2.7512436000006346	decision_monetary	1.586659800000234	8	predict_win	S	SD039.jpg	blue
463.67303770000035	1.0100620000002891	ISI	n/a	n/a	n/a	S	SD039.jpg	blue
