onset	duration	trial_type	rt	resp	selection	gender	image_left	image_right	image_left_type	image_right_type
0.0	1.0	ITI	n/a	n/a	n/a	n/a	n/a	n/a	n/a	n/a
1.023953599971719	2.502265300019644	decision_social_loss	1.5536610999843106	2	right	M	MF023.jpg	MF024.jpg	black	asian
3.5263978999573737	0.5059286000905558	ISI	n/a	n/a	n/a	M	MF023.jpg	MF024.jpg	black	asian
4.032382600009441	1.0164860000368208	feedback_social_loss_negative	n/a	n/a	n/a	M	MF023.jpg	MF024.jpg	black	asian
5.049008100060746	2.000033799908124	ITI	n/a	n/a	n/a	M	MF023.jpg	MF024.jpg	black	asian
7.065439100028016	2.5013504000380635	decision_social_win	1.5446429000003263	7	left	M	MF015.jpg	MF016.jpg	black	asian
9.566942800069228	0.5153871999355033	ISI	n/a	n/a	n/a	M	MF015.jpg	MF016.jpg	black	asian
10.082385099958628	1.015984300058335	feedback_social_win_positive	n/a	n/a	n/a	M	MF015.jpg	MF016.jpg	black	asian
11.098499799962156	4.000544900074601	ITI	n/a	n/a	n/a	M	MF015.jpg	MF016.jpg	black	asian
15.1073277000105	2.5012440000427887	decision_social_win	1.285998999956064	7	left	M	MF013.jpg	MF014.jpg	latino	asian
17.608727299957536	1.5069835000904277	ISI	n/a	n/a	n/a	M	MF013.jpg	MF014.jpg	latino	asian
19.115765599999577	1.0160712000215426	feedback_social_win_neutral	n/a	n/a	n/a	M	MF013.jpg	MF014.jpg	latino	asian
20.13193490006961	1.0004285998875275	ITI	n/a	n/a	n/a	M	MF013.jpg	MF014.jpg	latino	asian
21.14017230004538	2.5022573999594897	decision_social_loss	1.6859492999501526	2	right	F	FF029.jpg	FF030.jpg	asian	white
23.64258740004152	0.5064329999731854	ISI	n/a	n/a	n/a	F	FF029.jpg	FF030.jpg	asian	white
24.149075799970888	1.0161102000856772	feedback_social_loss_negative	n/a	n/a	n/a	F	FF029.jpg	FF030.jpg	asian	white
25.165285199997015	5.0004566999850795	ITI	n/a	n/a	n/a	F	FF029.jpg	FF030.jpg	asian	white
30.17354610003531	2.5017907000146806	decision_social_win	1.7369836999569088	7	left	M	MF003.jpg	MF004.jpg	latino	white
32.67549200006761	2.0069555999943987	ISI	n/a	n/a	n/a	M	MF003.jpg	MF004.jpg	latino	white
34.68250999995507	1.0160110000288114	feedback_social_win_positive	n/a	n/a	n/a	M	MF003.jpg	MF004.jpg	latino	white
35.698623900068924	2.00042219995521	ITI	n/a	n/a	n/a	M	MF003.jpg	MF004.jpg	latino	white
37.70703000004869	2.5008871000027284	decision_social_win	1.8356620999984443	7	left	M	MF019.jpg	MF020.jpg	white	latino
40.20807429996785	0.5075854000169784	ISI	n/a	n/a	n/a	M	MF019.jpg	MF020.jpg	white	latino
40.715715300058946	1.016142199980095	feedback_social_win_positive	n/a	n/a	n/a	M	MF019.jpg	MF020.jpg	white	latino
41.73196630005259	1.0003225000109524	ITI	n/a	n/a	n/a	M	MF019.jpg	MF020.jpg	white	latino
42.74038149998523	2.5008559999987483	decision_social_loss	1.9032986999955028	7	left	F	FF025.jpg	FF026.jpg	black	latino
45.241399500053376	0.5075566999148577	ISI	n/a	n/a	n/a	F	FF025.jpg	FF026.jpg	black	latino
45.74901210004464	1.016468600020744	feedback_social_loss_negative	n/a	n/a	n/a	F	FF025.jpg	FF026.jpg	black	latino
46.76561240002047	1.0002117999829352	ITI	n/a	n/a	n/a	F	FF025.jpg	FF026.jpg	black	latino
47.77394250000361	2.501109200064093	decision_social_loss	2.0018156999722123	2	right	M	MF027.jpg	MF028.jpg	white	black
50.2752173000481	2.0069419000064954	ISI	n/a	n/a	n/a	M	MF027.jpg	MF028.jpg	white	black
52.282248500036076	1.016277699964121	feedback_social_loss_negative	n/a	n/a	n/a	M	MF027.jpg	MF028.jpg	white	black
53.29862710007001	1.0003366998862475	ITI	n/a	n/a	n/a	M	MF027.jpg	MF028.jpg	white	black
54.30704910005443	2.5021607999224216	decision_social_loss	1.7525564999086782	7	left	F	FF031.jpg	FF032.jpg	latino	black
56.809367900015786	1.0062443000497296	ISI	n/a	n/a	n/a	F	FF031.jpg	FF032.jpg	latino	black
57.81566710001789	1.016128999995999	feedback_social_loss_negative	n/a	n/a	n/a	F	FF031.jpg	FF032.jpg	latino	black
58.831925700069405	1.000212199985981	ITI	n/a	n/a	n/a	F	FF031.jpg	FF032.jpg	latino	black
59.84015159995761	2.5020105000585318	decision_social_win	1.5363978000823408	2	right	F	FF005.jpg	FF006.jpg	white	asian
62.34232990001328	0.5065700999693945	ISI	n/a	n/a	n/a	F	FF005.jpg	FF006.jpg	white	asian
62.848957799957134	1.0163253000937402	feedback_social_win_positive	n/a	n/a	n/a	F	FF005.jpg	FF006.jpg	white	asian
63.86543989996426	4.0001320000737906	ITI	n/a	n/a	n/a	F	FF005.jpg	FF006.jpg	white	asian
67.87357809999958	2.5018130000680685	decision_social_win	2.037624999997206	2	right	F	FF015.jpg	FF016.jpg	black	asian
70.3755497999955	1.5072871000738814	ISI	n/a	n/a	n/a	F	FF015.jpg	FF016.jpg	black	asian
71.88291090005077	1.0155484999995679	feedback_social_win_positive	n/a	n/a	n/a	F	FF015.jpg	FF016.jpg	black	asian
72.89856650005095	1.0004035999299958	ITI	n/a	n/a	n/a	F	FF015.jpg	FF016.jpg	black	asian
73.907114700065	2.5014119999250397	decision_social_win	2.202464699978009	7	left	M	MF017.jpg	MF018.jpg	white	latino
76.40870000002906	1.006837800028734	ISI	n/a	n/a	n/a	M	MF017.jpg	MF018.jpg	white	latino
77.41559370001778	1.0162064000032842	feedback_social_win_positive	n/a	n/a	n/a	M	MF017.jpg	MF018.jpg	white	latino
78.43190770002548	3.000393299967982	ITI	n/a	n/a	n/a	M	MF017.jpg	MF018.jpg	white	latino
81.44049209996592	2.508557900087908	decision_social_loss_MISSED	missed	missed	missed	F	FF027.jpg	FF028.jpg	latino	asian
83.94917869998608	1.0162704000249505	ISI	n/a	n/a	n/a	F	FF027.jpg	FF028.jpg	latino	asian
84.96550579997711	1.016869300045073	feedback_social_loss_MISSED	n/a	n/a	n/a	F	FF027.jpg	FF028.jpg	latino	asian
85.9824885999551	3.016491800080985	ITI	n/a	n/a	n/a	F	FF027.jpg	FF028.jpg	latino	asian
89.0072295999853	2.502290499978699	decision_social_loss	1.8350678000133485	2	right	M	MF029.jpg	MF030.jpg	white	black
91.50968590006232	2.0056958999484777	ISI	n/a	n/a	n/a	M	MF029.jpg	MF030.jpg	white	black
93.51543649996165	1.0166915000882	feedback_social_loss_negative	n/a	n/a	n/a	M	MF029.jpg	MF030.jpg	white	black
94.53226690005977	4.999996599974111	ITI	n/a	n/a	n/a	M	MF029.jpg	MF030.jpg	white	black
99.54081420006696	2.502347599947825	decision_social_loss	0.9685788999777287	7	left	F	FF023.jpg	FF024.jpg	white	asian
102.04333260003477	0.5055969000095502	ISI	n/a	n/a	n/a	F	FF023.jpg	FF024.jpg	white	asian
102.54898710001726	1.0160075000021607	feedback_social_loss_negative	n/a	n/a	n/a	F	FF023.jpg	FF024.jpg	white	asian
103.56510959996376	4.000662500038743	ITI	n/a	n/a	n/a	F	FF023.jpg	FF024.jpg	white	asian
107.5739043999929	2.501894099987112	decision_social_win	2.1029746000422165	7	left	M	MF009.jpg	MF010.jpg	latino	asian
110.07597260002512	1.0064656999893486	ISI	n/a	n/a	n/a	M	MF009.jpg	MF010.jpg	latino	asian
111.08249609998893	1.0160260000266135	feedback_social_win_neutral	n/a	n/a	n/a	M	MF009.jpg	MF010.jpg	latino	asian
112.09876690001693	0.9999703000066802	ITI	n/a	n/a	n/a	M	MF009.jpg	MF010.jpg	latino	asian
113.10682790004648	2.5019956999458373	decision_social_loss	1.3538707999978215	2	right	M	MF033.jpg	MF034.jpg	white	latino
115.60899380000774	0.5064942999742925	ISI	n/a	n/a	n/a	M	MF033.jpg	MF034.jpg	white	latino
116.11554350005463	1.0161912000039592	feedback_social_loss_negative	n/a	n/a	n/a	M	MF033.jpg	MF034.jpg	white	latino
117.13184749998618	5.000382199999876	ITI	n/a	n/a	n/a	M	MF033.jpg	MF034.jpg	white	latino
122.1405007999856	2.502209600061178	decision_social_loss	1.9201484000077471	7	left	M	MF025.jpg	MF026.jpg	white	asian
124.64288000005763	0.5060430999146774	ISI	n/a	n/a	n/a	M	MF025.jpg	MF026.jpg	white	asian
125.14898080006242	1.0160635999636725	feedback_social_loss_negative	n/a	n/a	n/a	M	MF025.jpg	MF026.jpg	white	asian
126.16518430004362	2.0005185999907553	ITI	n/a	n/a	n/a	M	MF025.jpg	MF026.jpg	white	asian
128.17392069997732	2.5016565000405535	decision_social_loss	2.3857829000335187	7	left	M	MF035.jpg	MF036.jpg	latino	black
130.67575619998388	1.5065283000003546	ISI	n/a	n/a	n/a	M	MF035.jpg	MF036.jpg	latino	black
132.18234060006216	1.016020099981688	feedback_social_loss_negative	n/a	n/a	n/a	M	MF035.jpg	MF036.jpg	latino	black
133.19847629999276	2.0002988000633195	ITI	n/a	n/a	n/a	M	MF035.jpg	MF036.jpg	latino	black
135.20753050001804	2.5013145999982953	decision_social_loss	1.603199700010009	2	right	M	MF039.jpg	MF040.jpg	black	asian
137.70901860005688	0.5064357999945059	ISI	n/a	n/a	n/a	M	MF039.jpg	MF040.jpg	black	asian
138.21550900000148	1.0161988000618294	feedback_social_loss_neutral	n/a	n/a	n/a	M	MF039.jpg	MF040.jpg	black	asian
139.23182470002212	4.000374999945052	ITI	n/a	n/a	n/a	M	MF039.jpg	MF040.jpg	black	asian
143.2407447999576	2.5015465000178665	decision_social_loss	1.3358504000352696	2	right	M	MF031.jpg	MF032.jpg	latino	white
145.7424641000107	1.0064119000453502	ISI	n/a	n/a	n/a	M	MF031.jpg	MF032.jpg	latino	white
146.74893210001756	1.0159817000385374	feedback_social_loss_negative	n/a	n/a	n/a	M	MF031.jpg	MF032.jpg	latino	white
147.76506530004553	2.0004188999300823	ITI	n/a	n/a	n/a	M	MF031.jpg	MF032.jpg	latino	white
149.77374960004818	2.502205799915828	decision_social_win	2.052500699996017	7	left	F	FF009.jpg	FF010.jpg	asian	white
152.27612220006995	0.5069320999318734	ISI	n/a	n/a	n/a	F	FF009.jpg	FF010.jpg	asian	white
152.78315150004346	1.0153341999975964	feedback_social_win_neutral	n/a	n/a	n/a	F	FF009.jpg	FF010.jpg	asian	white
153.79862710007	2.0001432999270037	ITI	n/a	n/a	n/a	F	FF009.jpg	FF010.jpg	asian	white
155.80702319997363	2.5015921000158414	decision_social_loss	1.9518220000900328	7	left	F	FF033.jpg	FF034.jpg	black	white
158.3087988999905	0.5066311999689788	ISI	n/a	n/a	n/a	F	FF033.jpg	FF034.jpg	black	white
158.8154844000237	1.0162025999743491	feedback_social_loss_negative	n/a	n/a	n/a	F	FF033.jpg	FF034.jpg	black	white
159.83181230002083	3.0003085000207648	ITI	n/a	n/a	n/a	F	FF033.jpg	FF034.jpg	black	white
162.84041020006407	2.501458599930629	decision_social_win	1.37036459997762	2	right	F	FF011.jpg	FF012.jpg	white	latino
165.3420472999569	0.5067105001071468	ISI	n/a	n/a	n/a	F	FF011.jpg	FF012.jpg	white	latino
165.84881320002023	1.0161486000288278	feedback_social_win_neutral	n/a	n/a	n/a	F	FF011.jpg	FF012.jpg	white	latino
166.86508180003148	4.000378199969418	ITI	n/a	n/a	n/a	F	FF011.jpg	FF012.jpg	white	latino
170.87393190001603	2.5006377999670804	decision_social_loss	1.5698048999765888	7	left	F	FF021.jpg	FF022.jpg	black	latino
173.37475179997273	0.5077491999836639	ISI	n/a	n/a	n/a	F	FF021.jpg	FF022.jpg	black	latino
173.88256120006554	1.015758499968797	feedback_social_loss_negative	n/a	n/a	n/a	F	FF021.jpg	FF022.jpg	black	latino
174.89845079998486	5.000405400060117	ITI	n/a	n/a	n/a	F	FF021.jpg	FF022.jpg	black	latino
179.90734589996282	2.501954000093974	decision_social_win	1.5696921000489965	2	right	F	FF003.jpg	FF004.jpg	black	white
182.40947860002052	2.0060442000394687	ISI	n/a	n/a	n/a	F	FF003.jpg	FF004.jpg	black	white
184.41557860001922	1.0160812999820337	feedback_social_win_positive	n/a	n/a	n/a	F	FF003.jpg	FF004.jpg	black	white
185.43178750004154	1.0003470999654382	ITI	n/a	n/a	n/a	F	FF003.jpg	FF004.jpg	black	white
186.4405041000573	2.50075179990381	decision_social_win	1.5863617999712005	7	left	F	FF007.jpg	FF008.jpg	asian	black
188.94143710006028	1.0073422999121249	ISI	n/a	n/a	n/a	F	FF007.jpg	FF008.jpg	asian	black
189.94884520000778	1.0160077000036836	feedback_social_win_positive	n/a	n/a	n/a	F	FF007.jpg	FF008.jpg	asian	black
190.96498309995513	1.0004641000414267	ITI	n/a	n/a	n/a	F	FF007.jpg	FF008.jpg	asian	black
191.97400250006467	2.501600099960342	decision_social_win	1.8523276000050828	7	left	M	MF021.jpg	MF022.jpg	black	latino
194.47578330000397	1.5064403000287712	ISI	n/a	n/a	n/a	M	MF021.jpg	MF022.jpg	black	latino
195.98228210001253	1.0159868999617174	feedback_social_win_positive	n/a	n/a	n/a	M	MF021.jpg	MF022.jpg	black	latino
196.9983937999932	1.0002778000198305	ITI	n/a	n/a	n/a	M	MF021.jpg	MF022.jpg	black	latino
198.00710819999222	2.5004595000064	decision_social_win	1.7706349999643862	2	right	F	FF013.jpg	FF014.jpg	white	black
200.50775460002478	0.5078584000002593	ISI	n/a	n/a	n/a	F	FF013.jpg	FF014.jpg	white	black
201.01567090000026	1.0159500000299886	feedback_social_win_neutral	n/a	n/a	n/a	F	FF013.jpg	FF014.jpg	white	black
202.03174899995793	3.000348800094798	ITI	n/a	n/a	n/a	F	FF013.jpg	FF014.jpg	white	black
205.04051840002649	2.5009300999809057	decision_social_win	2.1684979000128806	7	left	F	FF019.jpg	FF020.jpg	latino	asian
207.54163590003736	0.5071407000068575	ISI	n/a	n/a	n/a	F	FF019.jpg	FF020.jpg	latino	asian
208.04883490002248	1.0161305000074208	feedback_social_win_positive	n/a	n/a	n/a	F	FF019.jpg	FF020.jpg	latino	asian
209.06509250006638	5.000304499990307	ITI	n/a	n/a	n/a	F	FF019.jpg	FF020.jpg	latino	asian
214.07389220001642	2.501720799948089	decision_social_loss	1.8198161999462172	7	left	F	FF039.jpg	FF040.jpg	white	black
216.5758024000097	2.0063462000107393	ISI	n/a	n/a	n/a	F	FF039.jpg	FF040.jpg	white	black
218.58220259996597	1.01595630007796	feedback_social_loss_neutral	n/a	n/a	n/a	F	FF039.jpg	FF040.jpg	white	black
219.59829550003633	2.0003572999266908	ITI	n/a	n/a	n/a	F	FF039.jpg	FF040.jpg	white	black
221.6079127000412	2.5011642000172287	decision_social_loss	1.8188364999368787	2	right	F	FF035.jpg	FF036.jpg	latino	black
224.10925410001073	0.5060895000351593	ISI	n/a	n/a	n/a	F	FF035.jpg	FF036.jpg	latino	black
224.61540580005385	1.0160971999866888	feedback_social_loss_neutral	n/a	n/a	n/a	F	FF035.jpg	FF036.jpg	latino	black
225.63163389998954	1.000452300067991	ITI	n/a	n/a	n/a	F	FF035.jpg	FF036.jpg	latino	black
226.6407118999632	2.5010816000867635	decision_social_loss	1.7688742000609636	2	right	F	FF041.jpg	FF042.jpg	latino	white
229.14204209996387	0.5066300000762567	ISI	n/a	n/a	n/a	F	FF041.jpg	FF042.jpg	latino	white
229.64872800000012	1.0161820000503212	feedback_social_loss_neutral	n/a	n/a	n/a	F	FF041.jpg	FF042.jpg	latino	white
230.66504009999335	2.000252600060776	ITI	n/a	n/a	n/a	F	FF041.jpg	FF042.jpg	latino	white
232.67390799999703	2.5016739000566304	decision_social_win	1.751752799958922	7	left	M	MF001.jpg	MF002.jpg	black	asian
235.175771899987	0.5066594000672922	ISI	n/a	n/a	n/a	M	MF001.jpg	MF002.jpg	black	asian
235.68249040003866	1.015664399950765	feedback_social_win_positive	n/a	n/a	n/a	M	MF001.jpg	MF002.jpg	black	asian
236.698282700032	1.000349699985236	ITI	n/a	n/a	n/a	M	MF001.jpg	MF002.jpg	black	asian
237.70715609996114	2.5009772001067176	decision_social_win	2.4192478000186384	2	right	M	MF005.jpg	MF006.jpg	white	black
240.2083072999958	1.5071414000121877	ISI	n/a	n/a	n/a	M	MF005.jpg	MF006.jpg	white	black
241.71550539997406	1.0163529000710696	feedback_social_win_positive	n/a	n/a	n/a	M	MF005.jpg	MF006.jpg	white	black
242.73201689997222	1.000196999986656	ITI	n/a	n/a	n/a	M	MF005.jpg	MF006.jpg	white	black
243.740663100034	2.5079883999424055	decision_social_loss_MISSED	missed	missed	missed	F	FF037.jpg	FF038.jpg	latino	latino
246.24879400001373	2.0019302000291646	ISI	0.15002870000898838	2	right	F	FF037.jpg	FF038.jpg	latino	latino
248.25078400003258	1.014023800031282	feedback_social_loss_MISSED	n/a	n/a	n/a	F	FF037.jpg	FF038.jpg	latino	latino
249.26493970002048	1.0004230999620631	ITI	n/a	n/a	n/a	F	FF037.jpg	FF038.jpg	latino	latino
250.27377640001941	2.5007728999480605	decision_social_win	1.4859727999428287	2	right	F	FF017.jpg	FF018.jpg	asian	asian
252.77474679995794	1.5070614001015201	ISI	n/a	n/a	n/a	F	FF017.jpg	FF018.jpg	asian	asian
254.28189590002876	1.016223100014031	feedback_social_win_positive	n/a	n/a	n/a	F	FF017.jpg	FF018.jpg	asian	asian
255.2982503999956	2.000348399975337	ITI	n/a	n/a	n/a	F	FF017.jpg	FF018.jpg	asian	asian
257.30718480004	2.501926099997945	decision_social_win	1.3860155999427661	2	right	M	MF011.jpg	MF012.jpg	latino	black
259.8092957000481	0.5060847999993712	ISI	n/a	n/a	n/a	M	MF011.jpg	MF012.jpg	latino	black
260.31543690001126	1.0160992000019178	feedback_social_win_neutral	n/a	n/a	n/a	M	MF011.jpg	MF012.jpg	latino	black
261.33166839997284	1.0002578999847174	ITI	n/a	n/a	n/a	M	MF011.jpg	MF012.jpg	latino	black
262.3404352000216	2.5007772999815643	decision_social_loss	1.6028856999473646	7	left	M	MF041.jpg	MF042.jpg	white	asian
264.8413969000103	2.0072419999632984	ISI	n/a	n/a	n/a	M	MF041.jpg	MF042.jpg	white	asian
266.8486935000401	1.0161709999665618	feedback_social_loss_neutral	n/a	n/a	n/a	M	MF041.jpg	MF042.jpg	white	asian
267.8649988999823	3.0002626000205055	ITI	n/a	n/a	n/a	M	MF041.jpg	MF042.jpg	white	asian
270.87389849999454	2.5006247999845073	decision_social_loss	1.4860238999826834	2	right	M	MF037.jpg	MF038.jpg	asian	latino
273.37477039999794	0.5074861999601126	ISI	n/a	n/a	n/a	M	MF037.jpg	MF038.jpg	asian	latino
273.88231230003294	1.015828000032343	feedback_social_loss_neutral	n/a	n/a	n/a	M	MF037.jpg	MF038.jpg	asian	latino
274.8982936000684	1.0005481999833137	ITI	n/a	n/a	n/a	M	MF037.jpg	MF038.jpg	asian	latino
275.9078798999544	2.5009229000424966	decision_social_win	1.6689712000079453	7	left	F	FF001.jpg	FF002.jpg	latino	black
278.4089944000589	2.0063887999858707	ISI	n/a	n/a	n/a	F	FF001.jpg	FF002.jpg	latino	black
280.41543829999864	1.0160734000382945	feedback_social_win_positive	n/a	n/a	n/a	F	FF001.jpg	FF002.jpg	latino	black
281.4316489000339	5.00035859993659	ITI	n/a	n/a	n/a	F	FF001.jpg	FF002.jpg	latino	black
286.44064549996983	2.500861500040628	decision_social_win	1.3853188999928534	2	right	M	MF007.jpg	MF008.jpg	asian	white
288.94169929996133	0.5069272000109777	ISI	n/a	n/a	n/a	M	MF007.jpg	MF008.jpg	asian	white
289.44868539995514	1.0164388000266626	feedback_social_win_neutral	n/a	n/a	n/a	M	MF007.jpg	MF008.jpg	asian	white
290.4652900999645	6.000110700028017	ITI	n/a	n/a	n/a	M	MF007.jpg	MF008.jpg	asian	white
