onset	duration	trial_type	rt	resp	selection	gender	image_left	image_right	image_left_type	image_right_type
0.0	1.0	ITI	n/a	n/a	n/a	n/a	n/a	n/a	n/a	n/a
1.0242157001048326	2.5007246998138726	decision_social_loss	1.1852325999643654	7	left	M	MF023.jpg	MF024.jpg	black	asian
3.5251398999243975	0.5071033001877367	ISI	n/a	n/a	n/a	M	MF023.jpg	MF024.jpg	black	asian
4.032301499973983	1.0157012999989092	feedback_social_loss_negative	n/a	n/a	n/a	M	MF023.jpg	MF024.jpg	black	asian
5.048109200084582	2.000840399879962	ITI	n/a	n/a	n/a	M	MF023.jpg	MF024.jpg	black	asian
7.057457000017166	2.5013550999574363	decision_social_win	1.7190111000090837	7	left	M	MF015.jpg	MF016.jpg	black	asian
9.55896809999831	0.5065969000570476	ISI	n/a	n/a	n/a	M	MF015.jpg	MF016.jpg	black	asian
10.065624099923298	1.0157165999989957	feedback_social_win_positive	n/a	n/a	n/a	M	MF015.jpg	MF016.jpg	black	asian
11.081438899971545	4.0008048000745475	ITI	n/a	n/a	n/a	M	MF015.jpg	MF016.jpg	black	asian
15.090919200098142	2.500757399946451	decision_social_win	1.6855249998625368	7	left	M	MF013.jpg	MF014.jpg	latino	asian
17.591828600037843	1.5070909999776632	ISI	n/a	n/a	n/a	M	MF013.jpg	MF014.jpg	latino	asian
19.09897830011323	1.01596220000647	feedback_social_win_neutral	n/a	n/a	n/a	M	MF013.jpg	MF014.jpg	latino	asian
20.115142799913883	1.0003399001434445	ITI	n/a	n/a	n/a	M	MF013.jpg	MF014.jpg	latino	asian
21.124618700006977	2.5008207000792027	decision_social_loss	1.4678223000373691	2	right	F	FF029.jpg	FF030.jpg	asian	white
23.625603399937972	0.5062371001113206	ISI	n/a	n/a	n/a	F	FF029.jpg	FF030.jpg	asian	white
24.131895900005475	1.0163467000238597	feedback_social_loss_negative	n/a	n/a	n/a	F	FF029.jpg	FF030.jpg	asian	white
25.14837469998747	5.000424399971962	ITI	n/a	n/a	n/a	F	FF029.jpg	FF030.jpg	asian	white
30.15701190009713	2.5010754000395536	decision_social_win	1.4534306998830289	7	left	M	MF003.jpg	MF004.jpg	latino	white
32.65826579998247	2.007483100052923	ISI	n/a	n/a	n/a	M	MF003.jpg	MF004.jpg	latino	white
34.66580800013617	1.0154881998896599	feedback_social_win_positive	n/a	n/a	n/a	M	MF003.jpg	MF004.jpg	latino	white
35.68140859995037	2.000787400174886	ITI	n/a	n/a	n/a	M	MF003.jpg	MF004.jpg	latino	white
37.69100610003807	2.5020131999626756	decision_social_win	1.6028352999128401	7	left	M	MF019.jpg	MF020.jpg	white	latino
40.19321930012666	0.5057553998194635	ISI	n/a	n/a	n/a	M	MF019.jpg	MF020.jpg	white	latino
40.69903249992058	1.01557210017927	feedback_social_win_positive	n/a	n/a	n/a	M	MF019.jpg	MF020.jpg	white	latino
41.71474099997431	1.0006578001193702	ITI	n/a	n/a	n/a	M	MF019.jpg	MF020.jpg	white	latino
42.723806800087914	2.50126519985497	decision_social_loss	1.8516591000370681	7	left	F	FF025.jpg	FF026.jpg	black	latino
45.225235500140116	0.506469199899584	ISI	n/a	n/a	n/a	F	FF025.jpg	FF026.jpg	black	latino
45.73177259997465	1.0164584999438375	feedback_social_loss_negative	n/a	n/a	n/a	F	FF025.jpg	FF026.jpg	black	latino
46.748414299916476	1.0003976000007242	ITI	n/a	n/a	n/a	F	FF025.jpg	FF026.jpg	black	latino
47.75728280004114	2.502008599927649	decision_social_loss	1.8020609999075532	2	right	M	MF027.jpg	MF028.jpg	white	black
50.259450200013816	2.0061651999130845	ISI	n/a	n/a	n/a	M	MF027.jpg	MF028.jpg	white	black
52.26567200012505	1.0156081998720765	feedback_social_loss_negative	n/a	n/a	n/a	M	MF027.jpg	MF028.jpg	white	black
53.28140170010738	1.0006895998958498	ITI	n/a	n/a	n/a	M	MF027.jpg	MF028.jpg	white	black
54.29079409991391	2.50186870014295	decision_social_loss	1.7026401001494378	7	left	F	FF031.jpg	FF032.jpg	latino	black
56.79282540013082	1.0055977997835726	ISI	n/a	n/a	n/a	F	FF031.jpg	FF032.jpg	latino	black
57.798477000091225	1.0163662999402732	feedback_social_loss_negative	n/a	n/a	n/a	F	FF031.jpg	FF032.jpg	latino	black
58.81498940009624	1.000321599887684	ITI	n/a	n/a	n/a	F	FF031.jpg	FF032.jpg	latino	black
59.82374439993873	2.502385900123045	decision_social_win	1.7527016000822186	7	left	F	FF005.jpg	FF006.jpg	white	asian
62.32630169996992	0.5057962001301348	ISI	n/a	n/a	n/a	F	FF005.jpg	FF006.jpg	white	asian
62.832153799943626	1.0156720001250505	feedback_social_win_positive	n/a	n/a	n/a	F	FF005.jpg	FF006.jpg	white	asian
63.84792879992165	4.000442300224677	ITI	n/a	n/a	n/a	F	FF005.jpg	FF006.jpg	white	asian
67.85697449999861	2.502151499968022	decision_social_win	1.851457400014624	7	left	F	FF015.jpg	FF016.jpg	black	asian
70.35929489997216	1.5061505001503974	ISI	n/a	n/a	n/a	F	FF015.jpg	FF016.jpg	black	asian
71.86550309997983	1.0156558000016958	feedback_social_win_positive	n/a	n/a	n/a	F	FF015.jpg	FF016.jpg	black	asian
72.88127580005676	1.0005441999528557	ITI	n/a	n/a	n/a	F	FF015.jpg	FF016.jpg	black	asian
73.89040650008246	2.5010410000104457	decision_social_win	2.319302399875596	7	left	M	MF017.jpg	MF018.jpg	white	latino
76.39161840011366	1.0066998000256717	ISI	n/a	n/a	n/a	M	MF017.jpg	MF018.jpg	white	latino
77.39837580011226	1.0165046998299658	feedback_social_win_positive	n/a	n/a	n/a	M	MF017.jpg	MF018.jpg	white	latino
78.41501220013015	3.0003244997933507	ITI	n/a	n/a	n/a	M	MF017.jpg	MF018.jpg	white	latino
81.42378189996816	2.501104900147766	decision_social_loss	1.8525931001640856	2	right	F	FF027.jpg	FF028.jpg	latino	asian
83.92507679993287	1.0069793001748621	ISI	n/a	n/a	n/a	F	FF027.jpg	FF028.jpg	latino	asian
84.9321131000761	1.0157359999138862	feedback_social_loss_negative	n/a	n/a	n/a	F	FF027.jpg	FF028.jpg	latino	asian
85.94799569994211	3.000587300164625	ITI	n/a	n/a	n/a	F	FF027.jpg	FF028.jpg	latino	asian
88.95745630003512	2.5006601999048144	decision_social_loss	1.5518360000569373	2	right	M	MF029.jpg	MF030.jpg	white	black
91.45828699995764	2.0069568001199514	ISI	n/a	n/a	n/a	M	MF029.jpg	MF030.jpg	white	black
93.46530000003986	1.0165931000374258	feedback_social_loss_negative	n/a	n/a	n/a	M	MF029.jpg	MF030.jpg	white	black
94.48202250013128	5.016230599954724	ITI	n/a	n/a	n/a	M	MF029.jpg	MF030.jpg	white	black
99.50683830003254	2.50128489988856	decision_social_loss	1.8363387999124825	7	left	F	FF023.jpg	FF024.jpg	white	asian
102.00829860009253	0.5066121998243034	ISI	n/a	n/a	n/a	F	FF023.jpg	FF024.jpg	white	asian
102.51496890000999	1.0161872999742627	feedback_social_loss_negative	n/a	n/a	n/a	F	FF023.jpg	FF024.jpg	white	asian
103.53128880006261	4.000269900076091	ITI	n/a	n/a	n/a	F	FF023.jpg	FF024.jpg	white	asian
107.54013859992847	2.500985600054264	decision_social_win	1.2862711001653224	7	left	M	MF009.jpg	MF010.jpg	latino	asian
110.04130059992895	1.0069069000892341	ISI	n/a	n/a	n/a	M	MF009.jpg	MF010.jpg	latino	asian
111.0482789000962	1.0164631998632103	feedback_social_win_neutral	n/a	n/a	n/a	M	MF009.jpg	MF010.jpg	latino	asian
112.06488270009868	1.000317099969834	ITI	n/a	n/a	n/a	M	MF009.jpg	MF010.jpg	latino	asian
113.07388360006735	2.502012100070715	decision_social_loss	1.10159289999865	2	right	M	MF033.jpg	MF034.jpg	white	latino
115.57608529995196	0.5056267001200467	ISI	n/a	n/a	n/a	M	MF033.jpg	MF034.jpg	white	latino
116.08177820011042	1.0159733998589218	feedback_social_loss_negative	n/a	n/a	n/a	M	MF033.jpg	MF034.jpg	white	latino
117.09790139994584	5.000586000038311	ITI	n/a	n/a	n/a	M	MF033.jpg	MF034.jpg	white	latino
122.10730369994417	2.5009286999702454	decision_social_loss	1.568111800123006	7	left	M	MF025.jpg	MF026.jpg	white	asian
124.60840460006148	0.506931799929589	ISI	n/a	n/a	n/a	M	MF025.jpg	MF026.jpg	white	asian
125.11539290007204	1.0159431998617947	feedback_social_loss_negative	n/a	n/a	n/a	M	MF025.jpg	MF026.jpg	white	asian
126.13148949993774	2.0000935001298785	ITI	n/a	n/a	n/a	M	MF025.jpg	MF026.jpg	white	asian
128.14015089999884	2.5009546999353915	decision_social_loss	1.4690499000716954	2	right	M	MF035.jpg	MF036.jpg	latino	black
130.64128930005245	1.5069522000849247	ISI	n/a	n/a	n/a	M	MF035.jpg	MF036.jpg	latino	black
132.14829899999313	1.0163507999386638	feedback_social_loss_negative	n/a	n/a	n/a	M	MF035.jpg	MF036.jpg	latino	black
133.16491240006872	2.0002923000138253	ITI	n/a	n/a	n/a	M	MF035.jpg	MF036.jpg	latino	black
135.1740544999484	2.501143000088632	decision_social_loss	1.5523553001694381	2	right	M	MF039.jpg	MF040.jpg	black	asian
137.67537730000913	0.5066088000312448	ISI	n/a	n/a	n/a	M	MF039.jpg	MF040.jpg	black	asian
138.18207500013523	1.0157440998591483	feedback_social_loss_neutral	n/a	n/a	n/a	M	MF039.jpg	MF040.jpg	black	asian
139.1979609001428	4.000533799873665	ITI	n/a	n/a	n/a	M	MF039.jpg	MF040.jpg	black	asian
143.20763369998895	2.5013805001508445	decision_social_loss	2.0344229999464005	7	left	M	MF031.jpg	MF032.jpg	latino	white
145.7091981000267	1.0059724000748247	ISI	n/a	n/a	n/a	M	MF031.jpg	MF032.jpg	latino	white
146.71522599994205	1.0158689999952912	feedback_social_loss_negative	n/a	n/a	n/a	M	MF031.jpg	MF032.jpg	latino	white
147.73124180012383	2.0003971999976784	ITI	n/a	n/a	n/a	M	MF031.jpg	MF032.jpg	latino	white
149.74030439998023	2.5008358999621123	decision_social_win	1.5680972000118345	2	right	F	FF009.jpg	FF010.jpg	asian	white
152.2414226999972	0.5070710000582039	ISI	n/a	n/a	n/a	F	FF009.jpg	FF010.jpg	asian	white
152.7485509000253	1.0157745000906289	feedback_social_win_neutral	n/a	n/a	n/a	F	FF009.jpg	FF010.jpg	asian	white
153.764453999931	2.00082950014621	ITI	n/a	n/a	n/a	F	FF009.jpg	FF010.jpg	asian	white
155.7741926999297	2.501016100170091	decision_social_loss	1.6680693000089377	7	left	F	FF033.jpg	FF034.jpg	black	white
158.27538760006428	0.5061345999129117	ISI	n/a	n/a	n/a	F	FF033.jpg	FF034.jpg	black	white
158.7815761999227	1.0159919001162052	feedback_social_loss_negative	n/a	n/a	n/a	F	FF033.jpg	FF034.jpg	black	white
159.79768100008368	3.000757599947974	ITI	n/a	n/a	n/a	F	FF033.jpg	FF034.jpg	black	white
162.80736670014448	2.500769999809563	decision_social_win	1.3508116998709738	2	right	F	FF011.jpg	FF012.jpg	white	latino
165.3083216000814	0.506538099842146	ISI	n/a	n/a	n/a	F	FF011.jpg	FF012.jpg	white	latino
165.81494950014167	1.0160501999780536	feedback_social_win_neutral	n/a	n/a	n/a	F	FF011.jpg	FF012.jpg	white	latino
166.83114870009013	4.000453099841252	ITI	n/a	n/a	n/a	F	FF011.jpg	FF012.jpg	white	latino
170.84038379997946	2.5007241000421345	decision_social_loss	1.1031158999539912	2	right	F	FF021.jpg	FF022.jpg	black	latino
173.34129279991612	0.5072806000243872	ISI	n/a	n/a	n/a	F	FF021.jpg	FF022.jpg	black	latino
173.84862990002148	1.0155992000363767	feedback_social_loss_negative	n/a	n/a	n/a	F	FF021.jpg	FF022.jpg	black	latino
174.86436030012555	5.000858099898323	ITI	n/a	n/a	n/a	F	FF021.jpg	FF022.jpg	black	latino
179.8745899000205	2.5015257000923157	decision_social_win	1.6848071001004428	2	right	F	FF003.jpg	FF004.jpg	black	white
182.376301900018	2.0055160000920296	ISI	n/a	n/a	n/a	F	FF003.jpg	FF004.jpg	black	white
184.38187559996732	1.0158337999600917	feedback_social_win_positive	n/a	n/a	n/a	F	FF003.jpg	FF004.jpg	black	white
185.39787500002421	1.0006242999807	ITI	n/a	n/a	n/a	F	FF003.jpg	FF004.jpg	black	white
186.40744669991545	2.502278600120917	decision_social_win	1.667703100014478	7	left	F	FF007.jpg	FF008.jpg	asian	black
188.90993400011212	1.0049121999181807	ISI	n/a	n/a	n/a	F	FF007.jpg	FF008.jpg	asian	black
189.91490460000932	1.0163374000694603	feedback_social_win_positive	n/a	n/a	n/a	F	FF007.jpg	FF008.jpg	asian	black
190.9314324001316	1.000440799864009	ITI	n/a	n/a	n/a	F	FF007.jpg	FF008.jpg	asian	black
191.9409372000955	2.501985999988392	decision_social_win	1.6023895000107586	7	left	M	MF021.jpg	MF022.jpg	black	latino
194.4431227000896	1.5050331000238657	ISI	n/a	n/a	n/a	M	MF021.jpg	MF022.jpg	black	latino
195.94820949994028	1.0160807000938803	feedback_social_win_positive	n/a	n/a	n/a	M	MF021.jpg	MF022.jpg	black	latino
196.9644464000594	1.0003044998738915	ITI	n/a	n/a	n/a	M	MF021.jpg	MF022.jpg	black	latino
197.9736341999378	2.501061800168827	decision_social_win	1.8517949001397938	7	left	F	FF013.jpg	FF014.jpg	white	black
200.47489640000276	0.5067708001006395	ISI	n/a	n/a	n/a	F	FF013.jpg	FF014.jpg	white	black
200.98173930007033	1.016138199949637	feedback_social_win_neutral	n/a	n/a	n/a	F	FF013.jpg	FF014.jpg	white	black
201.99806120013818	3.0002820999361575	ITI	n/a	n/a	n/a	F	FF013.jpg	FF014.jpg	white	black
205.0072948001325	2.502566299866885	decision_social_win	2.1681527998298407	7	left	F	FF019.jpg	FF020.jpg	latino	asian
207.51005599997006	0.5044991001486778	ISI	n/a	n/a	n/a	F	FF019.jpg	FF020.jpg	latino	asian
208.01460890006274	1.0163008999079466	feedback_social_win_positive	n/a	n/a	n/a	F	FF019.jpg	FF020.jpg	latino	asian
209.03111189999618	5.000533800106496	ITI	n/a	n/a	n/a	F	FF019.jpg	FF020.jpg	latino	asian
214.04050240013748	2.5013631999026984	decision_social_loss	1.934637799859047	7	left	F	FF039.jpg	FF040.jpg	white	black
216.54205800010823	2.0060109000187367	ISI	n/a	n/a	n/a	F	FF039.jpg	FF040.jpg	white	black
218.54812410008162	1.0160236000083387	feedback_social_loss_neutral	n/a	n/a	n/a	F	FF039.jpg	FF040.jpg	white	black
219.5642679000739	2.000649099936709	ITI	n/a	n/a	n/a	F	FF039.jpg	FF040.jpg	white	black
221.57393660000525	2.5018921999726444	decision_social_loss	2.151451300131157	7	left	F	FF035.jpg	FF036.jpg	latino	black
224.07602909998968	0.5052827999461442	ISI	n/a	n/a	n/a	F	FF035.jpg	FF036.jpg	latino	black
224.58137080003507	1.0163670999463648	feedback_social_loss_neutral	n/a	n/a	n/a	F	FF035.jpg	FF036.jpg	latino	black
225.597934700083	1.0003659999929368	ITI	n/a	n/a	n/a	F	FF035.jpg	FF036.jpg	latino	black
226.60727620008402	2.501697100000456	decision_social_loss	1.5689030999783427	7	left	F	FF041.jpg	FF042.jpg	latino	white
229.1091984999366	0.5053606000728905	ISI	n/a	n/a	n/a	F	FF041.jpg	FF042.jpg	latino	white
229.61461429996416	1.0160680999979377	feedback_social_loss_neutral	n/a	n/a	n/a	F	FF041.jpg	FF042.jpg	latino	white
230.6308073999826	2.0005159999709576	ITI	n/a	n/a	n/a	F	FF041.jpg	FF042.jpg	latino	white
232.64037970011123	2.501715400023386	decision_social_win	1.8180058998987079	7	left	M	MF001.jpg	MF002.jpg	black	asian
235.1422894001007	0.5057900999672711	ISI	n/a	n/a	n/a	M	MF001.jpg	MF002.jpg	black	asian
235.64813510002568	1.0163328000344336	feedback_social_win_positive	n/a	n/a	n/a	M	MF001.jpg	MF002.jpg	black	asian
236.66467740014195	1.0162901999428868	ITI	n/a	n/a	n/a	M	MF001.jpg	MF002.jpg	black	asian
237.69009490008466	2.5010859000030905	decision_social_win	1.4513099999167025	2	right	M	MF005.jpg	MF006.jpg	white	black
240.19137710006908	1.5065506999380887	ISI	n/a	n/a	n/a	M	MF005.jpg	MF006.jpg	white	black
241.6980391999241	1.0163795000407845	feedback_social_win_positive	n/a	n/a	n/a	M	MF005.jpg	MF006.jpg	white	black
242.71457620011643	1.0003345999866724	ITI	n/a	n/a	n/a	M	MF005.jpg	MF006.jpg	white	black
243.72397850011475	2.5011109998449683	decision_social_loss	1.9524040999822319	2	right	F	FF037.jpg	FF038.jpg	latino	latino
246.2252857000567	2.0060254998970777	ISI	n/a	n/a	n/a	F	FF037.jpg	FF038.jpg	latino	latino
248.23136700014584	1.0160783999599516	feedback_social_loss_neutral	n/a	n/a	n/a	F	FF037.jpg	FF038.jpg	latino	latino
249.24761450011283	1.0003160999622196	ITI	n/a	n/a	n/a	F	FF037.jpg	FF038.jpg	latino	latino
250.25820009992458	2.501904600067064	decision_social_win	1.284823700087145	2	right	F	FF017.jpg	FF018.jpg	asian	asian
252.76029870007187	1.5042778998613358	ISI	n/a	n/a	n/a	F	FF017.jpg	FF018.jpg	asian	asian
254.26468600006774	1.0161627000197768	feedback_social_win_positive	n/a	n/a	n/a	F	FF017.jpg	FF018.jpg	asian	asian
255.28104889998212	2.0001340999733657	ITI	n/a	n/a	n/a	F	FF017.jpg	FF018.jpg	asian	asian
257.29039969993755	2.5007951001171023	decision_social_win	1.6679817000404	7	left	M	MF011.jpg	MF012.jpg	latino	black
259.7913893000223	0.5068638999946415	ISI	n/a	n/a	n/a	M	MF011.jpg	MF012.jpg	latino	black
260.2983242000919	1.015728099970147	feedback_social_win_neutral	n/a	n/a	n/a	M	MF011.jpg	MF012.jpg	latino	black
261.3141831001267	1.0009462998714298	ITI	n/a	n/a	n/a	M	MF011.jpg	MF012.jpg	latino	black
262.32444990007207	2.5025410000234842	decision_social_loss	1.5011905999854207	7	left	M	MF041.jpg	MF042.jpg	white	asian
264.82719320012257	2.0042417999356985	ISI	n/a	n/a	n/a	M	MF041.jpg	MF042.jpg	white	asian
266.8315063000191	1.0157812000252306	feedback_social_loss_neutral	n/a	n/a	n/a	M	MF041.jpg	MF042.jpg	white	asian
267.8474213001318	3.000702999997884	ITI	n/a	n/a	n/a	M	MF041.jpg	MF042.jpg	white	asian
270.8570632999763	2.501777400029823	decision_social_loss	1.3025869999546558	2	right	M	MF037.jpg	MF038.jpg	asian	latino
273.35904500004835	0.5059783000033349	ISI	n/a	n/a	n/a	M	MF037.jpg	MF038.jpg	asian	latino
273.8650957001373	1.0156773999333382	feedback_social_loss_neutral	n/a	n/a	n/a	M	MF037.jpg	MF038.jpg	asian	latino
274.8809591999743	1.000387900043279	ITI	n/a	n/a	n/a	M	MF037.jpg	MF038.jpg	asian	latino
275.8905323999934	2.501632400089875	decision_social_win	1.5012658000923693	2	right	F	FF001.jpg	FF002.jpg	latino	black
278.39253900013864	2.0057813997846097	ISI	n/a	n/a	n/a	F	FF001.jpg	FF002.jpg	latino	black
280.39837629999965	1.0159134999848902	feedback_social_win_positive	n/a	n/a	n/a	F	FF001.jpg	FF002.jpg	latino	black
281.41445589996874	5.000557100167498	ITI	n/a	n/a	n/a	F	FF001.jpg	FF002.jpg	latino	black
286.42398909991607	2.5010827002115548	decision_social_win	1.2523824002128094	2	right	M	MF007.jpg	MF008.jpg	asian	white
288.9252698000055	0.5057912999764085	ISI	n/a	n/a	n/a	M	MF007.jpg	MF008.jpg	asian	white
289.43111460004	1.016289799939841	feedback_social_win_neutral	n/a	n/a	n/a	M	MF007.jpg	MF008.jpg	asian	white
290.4475593001116	6.000303099863231	ITI	n/a	n/a	n/a	M	MF007.jpg	MF008.jpg	asian	white
