onset	duration	trial_type	rt	resp	selection	gender	image_left	image_right	image_left_type	image_right_type
0.0	1.0	ITI	n/a	n/a	n/a	n/a	n/a	n/a	n/a	n/a
1.0248844999587163	2.5025715000228956	decision_social_loss	1.735388100030832	2	right	M	MF015.jpg	MF016.jpg	black	asian
3.5276546999812126	0.5058338000089861	ISI	n/a	n/a	n/a	M	MF015.jpg	MF016.jpg	black	asian
4.033545799960848	1.0162139000021853	feedback_social_loss_neutral	n/a	n/a	n/a	M	MF015.jpg	MF016.jpg	black	asian
5.049879500002135	1.000332299969159	ITI	n/a	n/a	n/a	M	MF015.jpg	MF016.jpg	black	asian
6.065542399999686	2.5005329999839887	decision_social_win	1.561667200003285	2	right	F	FF023.jpg	FF024.jpg	white	asian
8.566235599981155	1.0006041000015102	ISI	n/a	n/a	n/a	F	FF023.jpg	FF024.jpg	white	asian
9.56689739995636	1.0160604999982752	feedback_social_win_neutral	n/a	n/a	n/a	F	FF023.jpg	FF024.jpg	white	asian
10.583056899951771	3.000480300048366	ITI	n/a	n/a	n/a	F	FF023.jpg	FF024.jpg	white	asian
13.59180319996085	2.50123390002409	decision_social_win	1.853454700030852	2	right	M	MF041.jpg	MF042.jpg	white	asian
16.09319649997633	2.00698280002689	ISI	n/a	n/a	n/a	M	MF041.jpg	MF042.jpg	white	asian
18.100236499973107	1.0160521999932826	feedback_social_win_positive	n/a	n/a	n/a	M	MF041.jpg	MF042.jpg	white	asian
19.116387099958956	4.000576000020374	ITI	n/a	n/a	n/a	M	MF041.jpg	MF042.jpg	white	asian
23.124809100001585	2.5013588999863714	decision_social_win	1.8036982999765314	2	right	M	MF031.jpg	MF032.jpg	latino	white
25.626329299993813	1.5074270999757573	ISI	n/a	n/a	n/a	M	MF031.jpg	MF032.jpg	latino	white
27.13381569995545	1.0157165999989957	feedback_social_win_positive	n/a	n/a	n/a	M	MF031.jpg	MF032.jpg	latino	white
28.149629199993797	3.0005368999554776	ITI	n/a	n/a	n/a	M	MF031.jpg	MF032.jpg	latino	white
31.15810000000056	2.5013913000002503	decision_social_win	1.1027875999570824	7	left	M	MF039.jpg	MF040.jpg	black	asian
33.65965169999981	2.007230899995193	ISI	n/a	n/a	n/a	M	MF039.jpg	MF040.jpg	black	asian
35.66694099997403	1.016026699973736	feedback_social_win_positive	n/a	n/a	n/a	M	MF039.jpg	MF040.jpg	black	asian
36.683067499950994	4.000432200031355	ITI	n/a	n/a	n/a	M	MF039.jpg	MF040.jpg	black	asian
40.6914791999734	2.5010323000024073	decision_social_loss	1.685944799974095	7	left	F	FF011.jpg	FF012.jpg	white	latino
43.19267449999461	0.507601999968756	ISI	n/a	n/a	n/a	F	FF011.jpg	FF012.jpg	white	latino
43.700332699983846	1.0159736999776214	feedback_social_loss_negative	n/a	n/a	n/a	F	FF011.jpg	FF012.jpg	white	latino
44.7164092999883	2.0004412999842316	ITI	n/a	n/a	n/a	F	FF011.jpg	FF012.jpg	white	latino
46.725020999962	2.5015589999966323	decision_social_loss	1.5706575000076555	2	right	F	FF001.jpg	FF002.jpg	latino	black
49.226740499958396	2.0067899000132456	ISI	n/a	n/a	n/a	F	FF001.jpg	FF002.jpg	latino	black
51.233586699992884	1.0161415999755263	feedback_social_loss_negative	n/a	n/a	n/a	F	FF001.jpg	FF002.jpg	latino	black
52.24983019998763	3.000431499967817	ITI	n/a	n/a	n/a	F	FF001.jpg	FF002.jpg	latino	black
55.258220099960454	2.5019733000081033	decision_social_loss	1.4363885000348091	7	left	M	MF017.jpg	MF018.jpg	white	latino
57.76037959998939	0.5068918999750167	ISI	n/a	n/a	n/a	M	MF017.jpg	MF018.jpg	white	latino
58.26733099995181	1.0156417000107467	feedback_social_loss_neutral	n/a	n/a	n/a	M	MF017.jpg	MF018.jpg	white	latino
59.28307639999548	2.0004453999572434	ITI	n/a	n/a	n/a	M	MF017.jpg	MF018.jpg	white	latino
61.29170770000201	2.5004573999904096	decision_social_win	1.1018580999807455	2	right	M	MF035.jpg	MF036.jpg	latino	black
63.79232849995606	2.0079568999935873	ISI	n/a	n/a	n/a	M	MF035.jpg	MF036.jpg	latino	black
65.8003421999747	1.015988599974662	feedback_social_win_positive	n/a	n/a	n/a	M	MF035.jpg	MF036.jpg	latino	black
66.81643609999446	5.0004764999612235	ITI	n/a	n/a	n/a	M	MF035.jpg	MF036.jpg	latino	black
71.82479119999334	2.5014446999994107	decision_social_win	1.952281799982302	7	left	M	MF029.jpg	MF030.jpg	white	black
74.32640089996858	0.5071442000335082	ISI	n/a	n/a	n/a	M	MF029.jpg	MF030.jpg	white	black
74.83360079996055	1.016134100034833	feedback_social_win_positive	n/a	n/a	n/a	M	MF029.jpg	MF030.jpg	white	black
75.84983969997847	1.000435900001321	ITI	n/a	n/a	n/a	M	MF029.jpg	MF030.jpg	white	black
76.8589203999727	2.502345899993088	decision_social_loss	1.6027464999933727	7	left	F	FF015.jpg	FF016.jpg	black	asian
79.36143559997436	0.5055373000213876	ISI	n/a	n/a	n/a	F	FF015.jpg	FF016.jpg	black	asian
79.8670324999839	1.0159452999942005	feedback_social_loss_neutral	n/a	n/a	n/a	F	FF015.jpg	FF016.jpg	black	asian
80.8830825999612	1.0004415000439622	ITI	n/a	n/a	n/a	F	FF015.jpg	FF016.jpg	black	asian
81.89157619996695	2.500934900017455	decision_social_win	2.337115900008939	7	left	F	FF041.jpg	FF042.jpg	latino	white
84.39265589998104	0.5076503999880515	ISI	n/a	n/a	n/a	F	FF041.jpg	FF042.jpg	latino	white
84.9003631999949	1.0160490999696776	feedback_social_win_positive	n/a	n/a	n/a	F	FF041.jpg	FF042.jpg	latino	white
85.91651889996137	3.0002386000123806	ITI	n/a	n/a	n/a	F	FF041.jpg	FF042.jpg	latino	white
88.92487379995873	2.5016230000182986	decision_social_loss	2.0521990000270307	7	left	F	FF019.jpg	FF020.jpg	latino	asian
91.42666419997113	1.0068965000100434	ISI	n/a	n/a	n/a	F	FF019.jpg	FF020.jpg	latino	asian
92.43361690000165	1.0161320999613963	feedback_social_loss_neutral	n/a	n/a	n/a	F	FF019.jpg	FF020.jpg	latino	asian
93.44994439999573	1.000240399967879	ITI	n/a	n/a	n/a	F	FF019.jpg	FF020.jpg	latino	asian
94.45834640000248	2.502177299989853	decision_social_win	1.352201099973172	7	left	M	MF023.jpg	MF024.jpg	black	asian
96.96069509995868	2.0062806000350975	ISI	n/a	n/a	n/a	M	MF023.jpg	MF024.jpg	black	asian
98.96703219995834	1.0159641000209376	feedback_social_win_neutral	n/a	n/a	n/a	M	MF023.jpg	MF024.jpg	black	asian
99.98310539999511	2.0004451999557205	ITI	n/a	n/a	n/a	M	MF023.jpg	MF024.jpg	black	asian
101.99199660000158	2.5013520999928005	decision_social_win	2.186093600001186	7	left	F	FF021.jpg	FF022.jpg	black	latino
104.4935061999713	0.5070589000242762	ISI	n/a	n/a	n/a	F	FF021.jpg	FF022.jpg	black	latino
105.000622499967	1.015833500016015	feedback_social_win_neutral	n/a	n/a	n/a	F	FF021.jpg	FF022.jpg	black	latino
106.01656969997566	3.0012726000277326	ITI	n/a	n/a	n/a	F	FF021.jpg	FF022.jpg	black	latino
109.02606559998821	2.5004705999745056	decision_social_loss	1.5356471000122838	7	left	M	MF009.jpg	MF010.jpg	latino	asian
111.52670719998423	0.5068636999931186	ISI	n/a	n/a	n/a	M	MF009.jpg	MF010.jpg	latino	asian
112.03362719999859	1.0161377000040375	feedback_social_loss_negative	n/a	n/a	n/a	M	MF009.jpg	MF010.jpg	latino	asian
113.0498796000029	1.0004172999761067	ITI	n/a	n/a	n/a	M	MF009.jpg	MF010.jpg	latino	asian
114.05835099995602	2.501758600003086	decision_social_loss	1.8703816000488587	2	right	M	MF019.jpg	MF020.jpg	white	latino
116.56027419999009	1.0066134000080638	ISI	n/a	n/a	n/a	M	MF019.jpg	MF020.jpg	white	latino
117.56694239994977	1.0160401000175625	feedback_social_loss_neutral	n/a	n/a	n/a	M	MF019.jpg	MF020.jpg	white	latino
118.58309450000525	1.0004390999674797	ITI	n/a	n/a	n/a	M	MF019.jpg	MF020.jpg	white	latino
119.59158819995355	2.501726300048176	decision_social_win	1.302125700050965	2	right	F	FF039.jpg	FF040.jpg	white	black
122.09348969999701	1.5068149999715388	ISI	n/a	n/a	n/a	F	FF039.jpg	FF040.jpg	white	black
123.60036179999588	1.0160543999518268	feedback_social_win_positive	n/a	n/a	n/a	F	FF039.jpg	FF040.jpg	white	black
124.61652789998334	1.0003387000178918	ITI	n/a	n/a	n/a	F	FF039.jpg	FF040.jpg	white	black
125.6251057999907	2.50223789998563	decision_social_win	1.4352895999909379	2	right	M	MF027.jpg	MF028.jpg	white	black
128.1275147999986	0.5062777999555692	ISI	n/a	n/a	n/a	M	MF027.jpg	MF028.jpg	white	black
128.63389639998786	1.0158989999908954	feedback_social_win_neutral	n/a	n/a	n/a	M	MF027.jpg	MF028.jpg	white	black
129.64991139998892	3.0003825000021607	ITI	n/a	n/a	n/a	M	MF027.jpg	MF028.jpg	white	black
132.65902530000312	2.501371999969706	decision_social_loss	1.684650299954228	2	right	M	MF003.jpg	MF004.jpg	latino	white
135.16056999994908	2.0063265000353567	ISI	n/a	n/a	n/a	M	MF003.jpg	MF004.jpg	latino	white
137.16695230000187	1.0160803999751806	feedback_social_loss_negative	n/a	n/a	n/a	M	MF003.jpg	MF004.jpg	latino	white
138.18314879998798	3.000383900012821	ITI	n/a	n/a	n/a	M	MF003.jpg	MF004.jpg	latino	white
141.1916848999681	2.501115499995649	decision_social_win	1.6529643000103533	2	right	M	MF037.jpg	MF038.jpg	asian	latino
143.69297779997578	0.5072780000045896	ISI	n/a	n/a	n/a	M	MF037.jpg	MF038.jpg	asian	latino
144.20031009998638	1.0161400999641046	feedback_social_win_positive	n/a	n/a	n/a	M	MF037.jpg	MF038.jpg	asian	latino
145.21656599995913	1.000310100032948	ITI	n/a	n/a	n/a	M	MF037.jpg	MF038.jpg	asian	latino
146.22500819998095	2.501425599970389	decision_social_win	1.618689099967014	2	right	F	FF031.jpg	FF032.jpg	latino	black
148.72661209997023	1.0070162999909371	ISI	n/a	n/a	n/a	F	FF031.jpg	FF032.jpg	latino	black
149.73368740000296	1.0159972999827005	feedback_social_win_positive	n/a	n/a	n/a	F	FF031.jpg	FF032.jpg	latino	black
150.74980140000116	5.000496299995575	ITI	n/a	n/a	n/a	F	FF031.jpg	FF032.jpg	latino	black
155.75884209998185	2.5014707000227645	decision_social_loss	1.2360272000078112	2	right	M	MF005.jpg	MF006.jpg	white	black
158.2604923999752	0.5064599000033922	ISI	n/a	n/a	n/a	M	MF005.jpg	MF006.jpg	white	black
158.76702849997673	1.0160180000239052	feedback_social_loss_negative	n/a	n/a	n/a	M	MF005.jpg	MF006.jpg	white	black
159.78316519997315	3.000331900024321	ITI	n/a	n/a	n/a	M	MF005.jpg	MF006.jpg	white	black
162.7916694000014	2.501651899947319	decision_social_loss	1.7039415999897756	7	left	F	FF009.jpg	FF010.jpg	asian	white
165.29350229998818	0.5068258999963291	ISI	n/a	n/a	n/a	F	FF009.jpg	FF010.jpg	asian	white
165.80038469994906	1.0160208000452258	feedback_social_loss_negative	n/a	n/a	n/a	F	FF009.jpg	FF010.jpg	asian	white
166.81652329995995	1.0003504999913275	ITI	n/a	n/a	n/a	F	FF009.jpg	FF010.jpg	asian	white
167.82534039998427	2.5010264000156894	decision_social_loss	0.9024101999821141	2	right	F	FF017.jpg	FF018.jpg	asian	asian
170.3265604999615	2.0070832000346854	ISI	n/a	n/a	n/a	F	FF017.jpg	FF018.jpg	asian	asian
172.33370069996454	1.016058899986092	feedback_social_loss_neutral	n/a	n/a	n/a	F	FF017.jpg	FF018.jpg	asian	asian
173.34987829998136	1.000332499970682	ITI	n/a	n/a	n/a	F	FF017.jpg	FF018.jpg	asian	asian
174.35848349996377	2.5010425000218675	decision_social_loss	1.6363465000176802	2	right	M	MF001.jpg	MF002.jpg	black	asian
176.85969949996797	0.5073364999843761	ISI	n/a	n/a	n/a	M	MF001.jpg	MF002.jpg	black	asian
177.36709239997435	1.015975399990566	feedback_social_loss_negative	n/a	n/a	n/a	M	MF001.jpg	MF002.jpg	black	asian
178.3832380999811	2.000685999984853	ITI	n/a	n/a	n/a	M	MF001.jpg	MF002.jpg	black	asian
180.3928458999726	2.500476500019431	decision_social_win	1.5690325999748893	2	right	M	MF033.jpg	MF034.jpg	white	latino
182.89349990000483	0.506814599968493	ISI	n/a	n/a	n/a	M	MF033.jpg	MF034.jpg	white	latino
183.4004182999488	1.0160111000295728	feedback_social_win_positive	n/a	n/a	n/a	M	MF033.jpg	MF034.jpg	white	latino
184.41655029996764	1.0003223000094295	ITI	n/a	n/a	n/a	M	MF033.jpg	MF034.jpg	white	latino
185.42525479994947	2.501420800050255	decision_social_loss	1.4352095000213012	2	right	F	FF013.jpg	FF014.jpg	white	black
187.92685279995203	2.0066444000112824	ISI	n/a	n/a	n/a	F	FF013.jpg	FF014.jpg	white	black
189.9335557000013	1.0162106999778189	feedback_social_loss_negative	n/a	n/a	n/a	F	FF013.jpg	FF014.jpg	white	black
190.9498872999684	1.00045880000107	ITI	n/a	n/a	n/a	F	FF013.jpg	FF014.jpg	white	black
191.95895999995992	2.500726800004486	decision_social_win	2.1855062000104226	7	left	F	FF027.jpg	FF028.jpg	latino	asian
194.4598717999761	1.0070964000187814	ISI	n/a	n/a	n/a	F	FF027.jpg	FF028.jpg	latino	asian
195.46702639997238	1.016047700017225	feedback_social_win_neutral	n/a	n/a	n/a	F	FF027.jpg	FF028.jpg	latino	asian
196.4831946999766	2.0004164000274613	ITI	n/a	n/a	n/a	F	FF027.jpg	FF028.jpg	latino	asian
198.49224329995923	2.5022549999994226	decision_social_win	1.601474400027655	2	right	F	FF037.jpg	FF038.jpg	latino	latino
200.99467829999048	0.505644399963785	ISI	n/a	n/a	n/a	F	FF037.jpg	FF038.jpg	latino	latino
201.5003784999717	1.0160223999992013	feedback_social_win_positive	n/a	n/a	n/a	F	FF037.jpg	FF038.jpg	latino	latino
202.51652239996474	4.000371800037101	ITI	n/a	n/a	n/a	F	FF037.jpg	FF038.jpg	latino	latino
206.5252684999723	2.5011509000323713	decision_social_win	1.8020793999894522	2	right	F	FF035.jpg	FF036.jpg	latino	black
209.0266039999551	0.5070513000246137	ISI	n/a	n/a	n/a	F	FF035.jpg	FF036.jpg	latino	black
209.53371160000097	1.0160567999701016	feedback_social_win_positive	n/a	n/a	n/a	F	FF035.jpg	FF036.jpg	latino	black
210.5498955999501	1.0004074000171386	ITI	n/a	n/a	n/a	F	FF035.jpg	FF036.jpg	latino	black
211.55879509996157	2.5016955999890342	decision_social_win	1.7852761000394821	2	right	F	FF029.jpg	FF030.jpg	asian	white
214.0606777999783	0.5062828999944031	ISI	n/a	n/a	n/a	F	FF029.jpg	FF030.jpg	asian	white
214.5670227999799	1.0160900999908336	feedback_social_win_positive	n/a	n/a	n/a	F	FF029.jpg	FF030.jpg	asian	white
215.58322929998394	1.000326799985487	ITI	n/a	n/a	n/a	F	FF029.jpg	FF030.jpg	asian	white
216.59202459995868	2.5009590000263415	decision_social_loss	1.8018237000214867	7	left	F	FF005.jpg	FF006.jpg	white	asian
219.09317209996516	1.507066100020893	ISI	n/a	n/a	n/a	F	FF005.jpg	FF006.jpg	white	asian
220.60029410000425	1.0160391999525018	feedback_social_loss_negative	n/a	n/a	n/a	F	FF005.jpg	FF006.jpg	white	asian
221.6164618000039	5.000421199947596	ITI	n/a	n/a	n/a	F	FF005.jpg	FF006.jpg	white	asian
226.62551579996943	2.502154399990104	decision_social_loss	1.9182521000038832	2	right	M	MF011.jpg	MF012.jpg	latino	black
229.12786269997014	0.5057933999923989	ISI	n/a	n/a	n/a	M	MF011.jpg	MF012.jpg	latino	black
229.6337130999891	1.0160426999791525	feedback_social_loss_negative	n/a	n/a	n/a	M	MF011.jpg	MF012.jpg	latino	black
230.64988270000322	4.0003929999656975	ITI	n/a	n/a	n/a	M	MF011.jpg	MF012.jpg	latino	black
234.65920909994747	2.5011441000388004	decision_social_loss	1.9693996000569314	7	left	M	MF021.jpg	MF022.jpg	black	latino
237.16054620000068	0.5064227999537252	ISI	n/a	n/a	n/a	M	MF021.jpg	MF022.jpg	black	latino
237.66702549997717	1.0159790000179783	feedback_social_loss_neutral	n/a	n/a	n/a	M	MF021.jpg	MF022.jpg	black	latino
238.68313859996852	1.0004019000334665	ITI	n/a	n/a	n/a	M	MF021.jpg	MF022.jpg	black	latino
239.69204130000435	2.500973099959083	decision_social_loss	2.002798899949994	2	right	F	FF003.jpg	FF004.jpg	black	white
242.19320330000482	1.5070416999515146	ISI	n/a	n/a	n/a	F	FF003.jpg	FF004.jpg	black	white
243.70030399999814	1.016174399992451	feedback_social_loss_negative	n/a	n/a	n/a	F	FF003.jpg	FF004.jpg	black	white
244.71662079996895	4.000255300023127	ITI	n/a	n/a	n/a	F	FF003.jpg	FF004.jpg	black	white
248.72552869998617	2.5008034000056796	decision_social_win	1.9695180999697186	2	right	F	FF033.jpg	FF034.jpg	black	white
251.2265241999994	1.507095099950675	ISI	n/a	n/a	n/a	F	FF033.jpg	FF034.jpg	black	white
252.73368219996337	1.0160764000029303	feedback_social_win_positive	n/a	n/a	n/a	F	FF033.jpg	FF034.jpg	black	white
253.75012449995847	3.0001514000468887	ITI	n/a	n/a	n/a	F	FF033.jpg	FF034.jpg	black	white
256.7607528999797	2.5006375000230037	decision_social_loss	1.9679837999865413	2	right	M	MF013.jpg	MF014.jpg	latino	asian
259.2615882999962	0.5054934999789111	ISI	n/a	n/a	n/a	M	MF013.jpg	MF014.jpg	latino	asian
259.76713999995263	1.0159112000255845	feedback_social_loss_negative	n/a	n/a	n/a	M	MF013.jpg	MF014.jpg	latino	asian
260.783219999983	2.0003100999747403	ITI	n/a	n/a	n/a	M	MF013.jpg	MF014.jpg	latino	asian
262.7924059999641	2.5023161999997683	decision_social_loss	1.8021855999832042	2	right	M	MF007.jpg	MF008.jpg	asian	white
265.2949177999981	2.005465299997013	ISI	n/a	n/a	n/a	M	MF007.jpg	MF008.jpg	asian	white
267.30044109997107	1.0159266000264324	feedback_social_loss_negative	n/a	n/a	n/a	M	MF007.jpg	MF008.jpg	asian	white
268.31653129996266	4.00037500000326	ITI	n/a	n/a	n/a	M	MF007.jpg	MF008.jpg	asian	white
272.32571409997763	2.501183399988804	decision_social_loss	2.136126899975352	7	left	F	FF007.jpg	FF008.jpg	asian	black
274.8271016999497	0.5065255000372417	ISI	n/a	n/a	n/a	F	FF007.jpg	FF008.jpg	asian	black
275.3336867999751	1.0159915999975055	feedback_social_loss_negative	n/a	n/a	n/a	F	FF007.jpg	FF008.jpg	asian	black
276.3498369999579	3.0003860000288114	ITI	n/a	n/a	n/a	F	FF007.jpg	FF008.jpg	asian	black
279.35907529998804	2.5008096999954432	decision_social_win	2.2858449000050314	2	right	F	FF025.jpg	FF026.jpg	black	latino
281.860068399983	0.5070445999735966	ISI	n/a	n/a	n/a	F	FF025.jpg	FF026.jpg	black	latino
282.3671732999501	1.015907499997411	feedback_social_win_neutral	n/a	n/a	n/a	F	FF025.jpg	FF026.jpg	black	latino
283.38321749999886	3.000253000005614	ITI	n/a	n/a	n/a	F	FF025.jpg	FF026.jpg	black	latino
286.39236319996417	2.5015521000023	decision_social_win	1.751566399994772	2	right	M	MF025.jpg	MF026.jpg	white	asian
288.8941091999877	0.5060758999898098	ISI	n/a	n/a	n/a	M	MF025.jpg	MF026.jpg	white	asian
289.4002464999794	1.0160681999986991	feedback_social_win_neutral	n/a	n/a	n/a	M	MF025.jpg	MF026.jpg	white	asian
290.4164528999827	6.000350199989043	ITI	n/a	n/a	n/a	M	MF025.jpg	MF026.jpg	white	asian
