onset	duration	trial_type	rt	resp	selection	gender	image_left	image_right	image_left_type	image_right_type
0.0	1.0	ITI	n/a	n/a	n/a	n/a	n/a	n/a	n/a	n/a
1.0204268996603787	2.500441000331193	decision_monetary_loss	0.6557947001419961	2	right	D	DD015.jpg	DD016.jpg	blue	brown
3.5210309997200966	0.5117130000144243	ISI	n/a	n/a	n/a	D	DD015.jpg	DD016.jpg	blue	brown
4.032800199929625	1.0000040996819735	feedback_monetary_loss_neutral	n/a	n/a	n/a	D	DD015.jpg	DD016.jpg	blue	brown
5.032928599976003	1.0000555999577045	ITI	n/a	n/a	n/a	D	DD015.jpg	DD016.jpg	blue	brown
6.040156499948353	2.5007147998549044	decision_monetary_win	0.7360429996624589	7	left	S	SD023.jpg	SD024.jpg	blue	blue
8.541015299968421	1.0086539997719228	ISI	n/a	n/a	n/a	S	SD023.jpg	SD024.jpg	blue	blue
9.549727499950677	1.0162281999364495	feedback_monetary_win_neutral	n/a	n/a	n/a	S	SD023.jpg	SD024.jpg	blue	blue
10.566082299686968	3.016736200079322	ITI	n/a	n/a	n/a	S	SD023.jpg	SD024.jpg	blue	blue
13.590176099911332	2.501083199866116	decision_monetary_win	1.76955909980461	2	right	D	DD041.jpg	DD042.jpg	brown	brown
16.091402600053698	2.008420899976045	ISI	n/a	n/a	n/a	D	DD041.jpg	DD042.jpg	brown	brown
18.099882300011814	1.0165518997237086	feedback_monetary_win_positive	n/a	n/a	n/a	D	DD041.jpg	DD042.jpg	brown	brown
19.116602799855173	4.016290700063109	ITI	n/a	n/a	n/a	D	DD041.jpg	DD042.jpg	brown	brown
23.139999199658632	2.501203800085932	decision_monetary_win	0.4199083000421524	2	right	D	DD031.jpg	DD032.jpg	pink	red
25.641347900032997	1.5086613995954394	ISI	n/a	n/a	n/a	D	DD031.jpg	DD032.jpg	pink	red
27.150065999943763	1.016651399899274	feedback_monetary_win_positive	n/a	n/a	n/a	D	DD031.jpg	DD032.jpg	pink	red
28.16685329983011	3.0158442999236286	ITI	n/a	n/a	n/a	D	DD031.jpg	DD032.jpg	pink	red
31.190061199944466	2.5008229999803007	decision_monetary_win	0.41957389982417226	2	right	D	DD039.jpg	DD040.jpg	white	black
33.69102969998494	2.008231000043452	ISI	n/a	n/a	n/a	D	DD039.jpg	DD040.jpg	white	black
35.6993171996437	1.0000099004246294	feedback_monetary_win_positive	n/a	n/a	n/a	D	DD039.jpg	DD040.jpg	white	black
36.69947519991547	3.99995160009712	ITI	n/a	n/a	n/a	D	DD039.jpg	DD040.jpg	white	black
40.706819399725646	2.5004636999219656	decision_monetary_loss	0.619639600161463	2	right	S	SD011.jpg	SD012.jpg	blue	brown
43.20745039964095	0.5093653001822531	ISI	n/a	n/a	n/a	S	SD011.jpg	SD012.jpg	blue	brown
43.71687279967591	1.0160728003829718	feedback_monetary_loss_negative	n/a	n/a	n/a	S	SD011.jpg	SD012.jpg	blue	brown
44.733112699817866	2.0003531998954713	ITI	n/a	n/a	n/a	S	SD011.jpg	SD012.jpg	blue	brown
46.7406883998774	2.501516299787909	decision_monetary_loss	0.5354671999812126	2	right	S	SD001.jpg	SD002.jpg	green	purple
49.2423602999188	2.0073593999259174	ISI	n/a	n/a	n/a	S	SD001.jpg	SD002.jpg	green	purple
51.24977569980547	1.0168225998058915	feedback_monetary_loss_negative	n/a	n/a	n/a	S	SD001.jpg	SD002.jpg	green	purple
52.26673899963498	3.0162433004006743	ITI	n/a	n/a	n/a	S	SD001.jpg	SD002.jpg	green	purple
55.28823040006682	2.500978899654001	decision_monetary_loss	0.388349199667573	2	right	D	DD017.jpg	DD018.jpg	red	brown
57.78938059974462	0.5107535002753139	ISI	n/a	n/a	n/a	D	DD017.jpg	DD018.jpg	red	brown
58.3002064996399	1.0157717000693083	feedback_monetary_loss_neutral	n/a	n/a	n/a	D	DD017.jpg	DD018.jpg	red	brown
59.31612199964002	2.00021930038929	ITI	n/a	n/a	n/a	D	DD017.jpg	DD018.jpg	red	brown
61.32364319963381	2.5008812001906335	decision_monetary_win	0.5859727002680302	2	right	D	DD035.jpg	DD036.jpg	brown	brown
63.82467349991202	2.008042899891734	ISI	n/a	n/a	n/a	D	DD035.jpg	DD036.jpg	brown	brown
65.83277259999886	1.0004435000009835	feedback_monetary_win_positive	n/a	n/a	n/a	D	DD035.jpg	DD036.jpg	brown	brown
66.83337649982423	5.016515899915248	ITI	n/a	n/a	n/a	D	DD035.jpg	DD036.jpg	brown	brown
71.8563834996894	2.5009244000539184	decision_monetary_win	1.8198037003166974	7	left	D	DD029.jpg	DD030.jpg	brown	brown
74.35745349992067	0.5087254997342825	ISI	n/a	n/a	n/a	D	DD029.jpg	DD030.jpg	brown	brown
74.86623289994895	1.0164612997323275	feedback_monetary_win_positive	n/a	n/a	n/a	D	DD029.jpg	DD030.jpg	brown	brown
75.8828237997368	1.0166068002581596	ITI	n/a	n/a	n/a	D	DD029.jpg	DD030.jpg	brown	brown
76.90670409984887	2.5010699997656047	decision_monetary_loss	0.5199353001080453	2	right	S	SD015.jpg	SD016.jpg	yellow	brown
79.40792139992118	0.5086516998708248	ISI	n/a	n/a	n/a	S	SD015.jpg	SD016.jpg	yellow	brown
79.91662989975885	1.0167060000821948	feedback_monetary_loss_neutral	n/a	n/a	n/a	S	SD015.jpg	SD016.jpg	yellow	brown
80.93347299983725	1.0160236000083387	ITI	n/a	n/a	n/a	S	SD015.jpg	SD016.jpg	yellow	brown
81.95692969998345	2.5010134000331163	decision_monetary_win	0.352902099955827	7	left	S	SD041.jpg	SD042.jpg	brown	purple
84.4581394996494	0.5082383002154529	ISI	n/a	n/a	n/a	S	SD041.jpg	SD042.jpg	brown	purple
84.96643389994279	1.0162734999321401	feedback_monetary_win_positive	n/a	n/a	n/a	S	SD041.jpg	SD042.jpg	brown	purple
85.98283419990912	3.000492100138217	ITI	n/a	n/a	n/a	S	SD041.jpg	SD042.jpg	brown	purple
88.9909842996858	2.5012886002659798	decision_monetary_loss	0.11844080034643412	2	right	S	SD019.jpg	SD020.jpg	brown	green
91.49241920001805	1.0069772000424564	ISI	n/a	n/a	n/a	S	SD019.jpg	SD020.jpg	brown	green
92.49945040000603	1.0002594999969006	feedback_monetary_loss_neutral	n/a	n/a	n/a	S	SD019.jpg	SD020.jpg	brown	green
93.49984820000827	1.0160269998013973	ITI	n/a	n/a	n/a	S	SD019.jpg	SD020.jpg	brown	green
94.52332819998264	2.50139859970659	decision_monetary_win	0.3863995000720024	2	right	D	DD023.jpg	DD024.jpg	blue	white
97.02491919975728	2.0076884999871254	ISI	n/a	n/a	n/a	D	DD023.jpg	DD024.jpg	blue	white
99.0326625998132	1.0004552002064884	feedback_monetary_win_neutral	n/a	n/a	n/a	D	DD023.jpg	DD024.jpg	blue	white
100.03325599990785	2.016133999917656	ITI	n/a	n/a	n/a	D	DD023.jpg	DD024.jpg	blue	white
102.05687440000474	2.5009670997969806	decision_monetary_win	0.46928610000759363	2	right	S	SD021.jpg	SD022.jpg	blue	red
104.55799219990149	0.5085847997106612	ISI	n/a	n/a	n/a	S	SD021.jpg	SD022.jpg	blue	red
105.06664939969778	1.0159901999868453	feedback_monetary_win_neutral	n/a	n/a	n/a	S	SD021.jpg	SD022.jpg	blue	red
106.0827708998695	3.000058399979025	ITI	n/a	n/a	n/a	S	SD021.jpg	SD022.jpg	blue	red
109.0900783999823	2.500425399746746	decision_monetary_loss	0.6862817998044193	2	right	D	DD009.jpg	DD010.jpg	white	green
111.59064950002357	0.508657299913466	ISI	n/a	n/a	n/a	D	DD009.jpg	DD010.jpg	white	green
112.09936239989474	1.000348299741745	feedback_monetary_loss_negative	n/a	n/a	n/a	D	DD009.jpg	DD010.jpg	white	green
113.0998521996662	1.016285500023514	ITI	n/a	n/a	n/a	D	DD009.jpg	DD010.jpg	white	green
114.12350729992613	2.5012095998972654	decision_monetary_loss	0.46957079973071814	7	left	D	DD019.jpg	DD020.jpg	blue	brown
116.62489299988374	1.008417199831456	ISI	n/a	n/a	n/a	D	DD019.jpg	DD020.jpg	blue	brown
117.63336559990421	1.0056651998311281	feedback_monetary_loss_neutral	n/a	n/a	n/a	D	DD019.jpg	DD020.jpg	blue	brown
118.63917079987004	1.010404400061816	ITI	n/a	n/a	n/a	D	DD019.jpg	DD020.jpg	blue	brown
119.65614129975438	2.5001763999462128	decision_monetary_win	0.5200272998772562	2	right	S	SD039.jpg	SD040.jpg	blue	brown
122.15647199982777	1.5099427998065948	ISI	n/a	n/a	n/a	S	SD039.jpg	SD040.jpg	blue	brown
123.66646929970011	1.0160960000939667	feedback_monetary_win_positive	n/a	n/a	n/a	S	SD039.jpg	SD040.jpg	blue	brown
124.68271949980408	1.000247800257057	ITI	n/a	n/a	n/a	S	SD039.jpg	SD040.jpg	blue	brown
125.69129689969122	2.500300300307572	decision_monetary_win	0.5180965000763535	2	right	D	DD027.jpg	DD028.jpg	blue	red
128.1917536999099	0.5083888000808656	ISI	n/a	n/a	n/a	D	DD027.jpg	DD028.jpg	blue	red
128.7002007998526	1.016027099918574	feedback_monetary_win_neutral	n/a	n/a	n/a	D	DD027.jpg	DD028.jpg	blue	red
129.71636299975216	3.0161615000106394	ITI	n/a	n/a	n/a	D	DD027.jpg	DD028.jpg	blue	red
132.74015119997784	2.500732099637389	decision_monetary_loss	0.48657660000026226	7	left	D	DD003.jpg	DD004.jpg	green	blue
135.24104239977896	2.0085384002886713	ISI	n/a	n/a	n/a	D	DD003.jpg	DD004.jpg	green	blue
137.24963680002838	1.0002257996238768	feedback_monetary_loss_negative	n/a	n/a	n/a	D	DD003.jpg	DD004.jpg	green	blue
138.25001509999856	3.016347299795598	ITI	n/a	n/a	n/a	D	DD003.jpg	DD004.jpg	green	blue
141.2718523996882	2.501133100129664	decision_monetary_win	0.4374669003300369	2	right	D	DD037.jpg	DD038.jpg	brown	brown
143.77313609980047	0.5098943002521992	ISI	n/a	n/a	n/a	D	DD037.jpg	DD038.jpg	brown	brown
144.28308619977906	1.0001150001771748	feedback_monetary_win_positive	n/a	n/a	n/a	D	DD037.jpg	DD038.jpg	brown	brown
145.28334269998595	1.01652089972049	ITI	n/a	n/a	n/a	D	DD037.jpg	DD038.jpg	brown	brown
146.307225599885	2.5010103001259267	decision_monetary_win	0.4693366000428796	2	right	S	SD031.jpg	SD032.jpg	red	purple
148.8083931999281	1.0075324000790715	ISI	n/a	n/a	n/a	S	SD031.jpg	SD032.jpg	red	purple
149.81598379975185	1.0001846998929977	feedback_monetary_win_positive	n/a	n/a	n/a	S	SD031.jpg	SD032.jpg	red	purple
150.8163378997706	5.016447099857032	ITI	n/a	n/a	n/a	S	SD031.jpg	SD032.jpg	red	purple
155.8402452999726	2.50109519995749	decision_monetary_loss	0.685912000015378	2	right	D	DD005.jpg	DD006.jpg	brown	brown
158.34148399997503	0.5078868996351957	ISI	n/a	n/a	n/a	D	DD005.jpg	DD006.jpg	brown	brown
158.84942970005795	1.0007292996160686	feedback_monetary_loss_negative	n/a	n/a	n/a	D	DD005.jpg	DD006.jpg	brown	brown
159.85032559977844	3.015885700006038	ITI	n/a	n/a	n/a	D	DD005.jpg	DD006.jpg	brown	brown
162.8737915996462	2.500238100066781	decision_monetary_loss	0.6691601001657546	2	right	S	SD009.jpg	SD010.jpg	blue	yellow
165.37418929999694	0.5086183999665082	ISI	n/a	n/a	n/a	S	SD009.jpg	SD010.jpg	blue	yellow
165.8828644999303	1.0003769998438656	feedback_monetary_loss_negative	n/a	n/a	n/a	S	SD009.jpg	SD010.jpg	blue	yellow
166.88338379980996	1.0164196002297103	ITI	n/a	n/a	n/a	S	SD009.jpg	SD010.jpg	blue	yellow
167.90735539980233	2.5005104998126626	decision_monetary_loss	1.1019927002489567	2	right	S	SD017.jpg	SD018.jpg	blue	green
170.40801709983498	2.008236300200224	ISI	n/a	n/a	n/a	S	SD017.jpg	SD018.jpg	blue	green
172.41630789963529	1.0162440002895892	feedback_monetary_loss_neutral	n/a	n/a	n/a	S	SD017.jpg	SD018.jpg	blue	green
173.43271209998056	1.0002417000941932	ITI	n/a	n/a	n/a	S	SD017.jpg	SD018.jpg	blue	green
174.44043749989942	2.50077429972589	decision_monetary_loss	0.5356062999926507	2	right	D	DD001.jpg	DD002.jpg	blue	brown
176.94138709967956	0.5080834999680519	ISI	n/a	n/a	n/a	D	DD001.jpg	DD002.jpg	blue	brown
177.4495246997103	1.0000126999802887	feedback_monetary_loss_negative	n/a	n/a	n/a	D	DD001.jpg	DD002.jpg	blue	brown
178.44967320002615	2.0162449995987117	ITI	n/a	n/a	n/a	D	DD001.jpg	DD002.jpg	blue	brown
180.47348759975284	2.499512600246817	decision_monetary_win	0.38602459989488125	2	right	D	DD033.jpg	DD034.jpg	red	purple
182.97315800003707	0.5098171997815371	ISI	n/a	n/a	n/a	D	DD033.jpg	DD034.jpg	red	purple
183.4830382000655	1.0163829997181892	feedback_monetary_win_positive	n/a	n/a	n/a	D	DD033.jpg	DD034.jpg	red	purple
184.49957189988345	1.016494299750775	ITI	n/a	n/a	n/a	D	DD033.jpg	DD034.jpg	red	purple
185.5243486999534	2.5015742001123726	decision_monetary_loss	0.4518303996883333	2	right	S	SD013.jpg	SD014.jpg	blue	black
188.0260830996558	2.007425600197166	ISI	n/a	n/a	n/a	S	SD013.jpg	SD014.jpg	blue	black
190.03356539970264	1.0160111002624035	feedback_monetary_loss_negative	n/a	n/a	n/a	S	SD013.jpg	SD014.jpg	blue	black
191.0497221997939	1.0001803999766707	ITI	n/a	n/a	n/a	S	SD013.jpg	SD014.jpg	blue	black
192.05789609998465	2.5008117998950183	decision_monetary_win	0.3182924999855459	2	right	S	SD027.jpg	SD028.jpg	green	grey
194.5588670996949	1.0078417002223432	ISI	n/a	n/a	n/a	S	SD027.jpg	SD028.jpg	green	grey
195.5667760996148	1.0161579004488885	feedback_monetary_win_neutral	n/a	n/a	n/a	S	SD027.jpg	SD028.jpg	green	grey
196.58311029989272	2.000060100108385	ITI	n/a	n/a	n/a	S	SD027.jpg	SD028.jpg	green	grey
198.59048909973353	2.500403200276196	decision_monetary_win	0.3854800001718104	2	right	S	SD037.jpg	SD038.jpg	red	brown
201.09105099970475	0.5090487003326416	ISI	n/a	n/a	n/a	S	SD037.jpg	SD038.jpg	red	brown
201.60015339963138	1.016206200234592	feedback_monetary_win_positive	n/a	n/a	n/a	S	SD037.jpg	SD038.jpg	red	brown
202.61656219977885	4.000106899999082	ITI	n/a	n/a	n/a	S	SD037.jpg	SD038.jpg	red	brown
206.62443339964375	2.501022800337523	decision_monetary_win	0.5187948001548648	2	right	S	SD035.jpg	SD036.jpg	blue	black
209.12561659980565	0.5078027998097241	ISI	n/a	n/a	n/a	S	SD035.jpg	SD036.jpg	blue	black
209.6334738000296	1.0167047996073961	feedback_monetary_win_positive	n/a	n/a	n/a	S	SD035.jpg	SD036.jpg	blue	black
210.65032329969108	1.0156568000093102	ITI	n/a	n/a	n/a	S	SD035.jpg	SD036.jpg	blue	black
211.67387439962476	2.5010228999890387	decision_monetary_win	0.3024682002142072	2	right	S	SD029.jpg	SD030.jpg	black	red
214.17505479976535	0.507691300008446	ISI	n/a	n/a	n/a	S	SD029.jpg	SD030.jpg	black	red
214.68280910002068	1.0165136000141501	feedback_monetary_win_positive	n/a	n/a	n/a	S	SD029.jpg	SD030.jpg	black	red
215.69946439983323	1.0169850001111627	ITI	n/a	n/a	n/a	S	SD029.jpg	SD030.jpg	black	red
216.72411779966205	2.5005240002647042	decision_monetary_loss	0.41856500040739775	2	right	S	SD005.jpg	SD006.jpg	black	black
219.22479610005394	1.50845510000363	ISI	n/a	n/a	n/a	S	SD005.jpg	SD006.jpg	black	black
220.73330329963937	1.0159468003548682	feedback_monetary_loss_negative	n/a	n/a	n/a	S	SD005.jpg	SD006.jpg	black	black
221.74939189990982	4.999934500083327	ITI	n/a	n/a	n/a	S	SD005.jpg	SD006.jpg	black	black
226.75696250004694	2.500195199623704	decision_monetary_loss	0.4190393998287618	2	right	D	DD011.jpg	DD012.jpg	brown	brown
229.25731359981	0.5087406001985073	ISI	n/a	n/a	n/a	D	DD011.jpg	DD012.jpg	brown	brown
229.766109299846	1.017033000010997	feedback_monetary_loss_negative	n/a	n/a	n/a	D	DD011.jpg	DD012.jpg	brown	brown
230.78329009981826	4.016120499931276	ITI	n/a	n/a	n/a	D	DD011.jpg	DD012.jpg	brown	brown
234.8075264999643	2.5005556996911764	decision_monetary_loss	0.43550279969349504	2	right	D	DD021.jpg	DD022.jpg	red	blue
237.30824070004746	0.5082903997972608	ISI	n/a	n/a	n/a	D	DD021.jpg	DD022.jpg	red	blue
237.81660709995776	1.0163118001073599	feedback_monetary_loss_neutral	n/a	n/a	n/a	D	DD021.jpg	DD022.jpg	red	blue
238.8330711000599	1.0162786999717355	ITI	n/a	n/a	n/a	D	DD021.jpg	DD022.jpg	red	blue
239.85709259985015	2.5008323001675308	decision_monetary_loss	0.4856405002065003	2	right	S	SD003.jpg	SD004.jpg	yellow	white
242.3580804998055	1.508439099881798	ISI	n/a	n/a	n/a	S	SD003.jpg	SD004.jpg	yellow	white
243.86657609976828	1.0160834998823702	feedback_monetary_loss_negative	n/a	n/a	n/a	S	SD003.jpg	SD004.jpg	yellow	white
244.88283539982513	4.016938500106335	ITI	n/a	n/a	n/a	S	SD003.jpg	SD004.jpg	yellow	white
248.90748200006783	2.5014914995990694	decision_monetary_win	0.8186431997455657	2	right	S	SD033.jpg	SD034.jpg	brown	red
251.4091312000528	1.5069891000166535	ISI	n/a	n/a	n/a	S	SD033.jpg	SD034.jpg	brown	red
252.91617689980194	1.0166541002690792	feedback_monetary_win_positive	n/a	n/a	n/a	S	SD033.jpg	SD034.jpg	brown	red
253.9330262998119	3.0165380998514593	ITI	n/a	n/a	n/a	S	SD033.jpg	SD034.jpg	brown	red
256.9561502998695	2.5012663998641074	decision_monetary_loss	0.3867254997603595	7	left	D	DD013.jpg	DD014.jpg	brown	green
259.4575781999156	0.5083512999117374	ISI	n/a	n/a	n/a	D	DD013.jpg	DD014.jpg	brown	green
259.9659825996496	1.0001284000463784	feedback_monetary_loss_negative	n/a	n/a	n/a	D	DD013.jpg	DD014.jpg	brown	green
260.9662639996968	2.0002390001900494	ITI	n/a	n/a	n/a	D	DD013.jpg	DD014.jpg	brown	green
262.974373199977	2.5009441999718547	decision_monetary_loss	0.5349942999891937	7	left	D	DD007.jpg	DD008.jpg	blue	blue
265.475477299653	2.0076576001010835	ISI	n/a	n/a	n/a	D	DD007.jpg	DD008.jpg	blue	blue
267.4831893998198	1.0161617998965085	feedback_monetary_loss_negative	n/a	n/a	n/a	D	DD007.jpg	DD008.jpg	blue	blue
268.49950439995155	4.000136099755764	ITI	n/a	n/a	n/a	D	DD007.jpg	DD008.jpg	blue	blue
272.507342599798	2.5011980002745986	decision_monetary_loss	0.4191773999482393	2	right	S	SD007.jpg	SD008.jpg	brown	blue
275.0087008997798	0.508009800221771	ISI	n/a	n/a	n/a	S	SD007.jpg	SD008.jpg	brown	blue
275.5167660000734	1.016039999667555	feedback_monetary_loss_negative	n/a	n/a	n/a	S	SD007.jpg	SD008.jpg	brown	blue
276.5329582998529	3.0164394001476467	ITI	n/a	n/a	n/a	S	SD007.jpg	SD008.jpg	brown	blue
279.5572539996356	2.5000509000383317	decision_monetary_win	0.5021964004263282	2	right	S	SD025.jpg	SD026.jpg	green	gray
282.0574797997251	0.5091130998916924	ISI	n/a	n/a	n/a	S	SD025.jpg	SD026.jpg	green	gray
282.5666505000554	1.0159028000198305	feedback_monetary_win_neutral	n/a	n/a	n/a	S	SD025.jpg	SD026.jpg	green	gray
283.58270089980215	3.000013600103557	ITI	n/a	n/a	n/a	S	SD025.jpg	SD026.jpg	green	gray
286.5906324996613	2.5006474000401795	decision_monetary_win	0.45216030022129416	2	right	D	DD025.jpg	DD026.jpg	brown	white
289.09144150000066	0.5082498998381197	ISI	n/a	n/a	n/a	D	DD025.jpg	DD026.jpg	brown	white
289.59976139990613	1.0167482998222113	feedback_monetary_win_neutral	n/a	n/a	n/a	D	DD025.jpg	DD026.jpg	brown	white
290.61665949970484	6.016428099945188	ITI	n/a	n/a	n/a	D	DD025.jpg	DD026.jpg	brown	white
