onset	duration	trial_type	rt	resp	selection	gender	image_left	image_right	image_left_type	image_right_type
0.0	1.0	ITI	n/a	n/a	n/a	n/a	n/a	n/a	n/a	n/a
1.020251499954611	2.50021420000121	decision_social_loss	1.3222942999564111	2	right	M	MF015.jpg	MF016.jpg	black	asian
3.5206458996981382	0.5124729000963271	ISI	n/a	n/a	n/a	M	MF015.jpg	MF016.jpg	black	asian
4.033173900097609	1.0159507999196649	feedback_social_loss_neutral	n/a	n/a	n/a	M	MF015.jpg	MF016.jpg	black	asian
5.050186200067401	1.015490799676627	ITI	n/a	n/a	n/a	M	MF015.jpg	MF016.jpg	black	asian
6.080586900003254	2.502095999661833	decision_social_win	0.811959299724549	7	left	F	FF023.jpg	FF024.jpg	white	asian
8.58282609982416	1.0002528000622988	ISI	n/a	n/a	n/a	F	FF023.jpg	FF024.jpg	white	asian
9.58313459996134	1.016073300037533	feedback_social_win_neutral	n/a	n/a	n/a	F	FF023.jpg	FF024.jpg	white	asian
10.599331100005656	3.000115300063044	ITI	n/a	n/a	n/a	F	FF023.jpg	FF024.jpg	white	asian
13.607376599684358	2.500739600043744	decision_social_win	0.9185880003497005	2	right	M	MF041.jpg	MF042.jpg	white	asian
16.108297999948263	2.0076419999822974	ISI	n/a	n/a	n/a	M	MF041.jpg	MF042.jpg	white	asian
18.11599770002067	1.0165220997296274	feedback_social_win_positive	n/a	n/a	n/a	M	MF041.jpg	MF042.jpg	white	asian
19.132645399775356	4.000301800202578	ITI	n/a	n/a	n/a	M	MF041.jpg	MF042.jpg	white	asian
23.140798499807715	2.4998452002182603	decision_social_win	0.43528370000422	2	right	M	MF031.jpg	MF032.jpg	latino	white
25.640814299695194	1.508997100405395	ISI	n/a	n/a	n/a	M	MF031.jpg	MF032.jpg	latino	white
27.149867999833077	1.0158424000255764	feedback_social_win_positive	n/a	n/a	n/a	M	MF031.jpg	MF032.jpg	latino	white
28.16583690000698	3.000728199724108	ITI	n/a	n/a	n/a	M	MF031.jpg	MF032.jpg	latino	white
31.17371639981866	2.500163100194186	decision_social_win	0.45207920018583536	7	left	M	MF039.jpg	MF040.jpg	black	asian
33.67402959987521	2.0082314000464976	ISI	n/a	n/a	n/a	M	MF039.jpg	MF040.jpg	black	asian
35.682315699756145	1.0000263000838459	feedback_social_win_positive	n/a	n/a	n/a	M	MF039.jpg	MF040.jpg	black	asian
36.682471399661154	4.000609800219536	ITI	n/a	n/a	n/a	M	MF039.jpg	MF040.jpg	black	asian
40.69031640002504	2.5004982999525964	decision_social_loss	0.5688567999750376	7	left	F	FF011.jpg	FF012.jpg	white	latino
43.190970099996775	0.5087791997939348	ISI	n/a	n/a	n/a	F	FF011.jpg	FF012.jpg	white	latino
43.6998048000969	1.0162174999713898	feedback_social_loss_negative	n/a	n/a	n/a	F	FF011.jpg	FF012.jpg	white	latino
44.716160299722105	2.0163592002354562	ITI	n/a	n/a	n/a	F	FF011.jpg	FF012.jpg	white	latino
46.74016769975424	2.5006840000860393	decision_social_loss	0.7195053999312222	2	right	F	FF001.jpg	FF002.jpg	latino	black
49.241004299838096	2.008588199969381	ISI	n/a	n/a	n/a	F	FF001.jpg	FF002.jpg	latino	black
51.2496633999981	1.0167482998222113	feedback_social_loss_negative	n/a	n/a	n/a	F	FF001.jpg	FF002.jpg	latino	black
52.26655079983175	3.016277300193906	ITI	n/a	n/a	n/a	F	FF001.jpg	FF002.jpg	latino	black
55.29100549966097	2.500217200256884	decision_social_loss	0.5351459002122283	7	left	M	MF017.jpg	MF018.jpg	white	latino
57.79137220000848	0.5078141996636987	ISI	n/a	n/a	n/a	M	MF017.jpg	MF018.jpg	white	latino
58.29924189997837	1.000411099754274	feedback_social_loss_neutral	n/a	n/a	n/a	M	MF017.jpg	MF018.jpg	white	latino
59.29978829994798	2.016628900077194	ITI	n/a	n/a	n/a	M	MF017.jpg	MF018.jpg	white	latino
61.323780599981546	2.5010199998505414	decision_social_win	0.685464299749583	2	right	M	MF035.jpg	MF036.jpg	latino	black
63.82495060004294	2.0074180997908115	ISI	n/a	n/a	n/a	M	MF035.jpg	MF036.jpg	latino	black
65.8324357997626	1.01715620001778	feedback_social_win_positive	n/a	n/a	n/a	M	MF035.jpg	MF036.jpg	latino	black
66.84973010001704	5.016232999972999	ITI	n/a	n/a	n/a	M	MF035.jpg	MF036.jpg	latino	black
71.87412949977443	2.5007903003133833	decision_social_win	1.402476199902594	7	left	M	MF029.jpg	MF030.jpg	white	black
74.37506800005212	0.5072910999879241	ISI	n/a	n/a	n/a	M	MF029.jpg	MF030.jpg	white	black
74.8824144997634	1.0004006000235677	feedback_social_win_positive	n/a	n/a	n/a	M	MF029.jpg	MF030.jpg	white	black
75.88297769986093	1.0159700000658631	ITI	n/a	n/a	n/a	M	MF029.jpg	MF030.jpg	white	black
76.90666629979387	2.501913100015372	decision_social_loss	1.2194399000145495	2	right	F	FF015.jpg	FF016.jpg	black	asian
79.4087279997766	0.5072797001339495	ISI	n/a	n/a	n/a	F	FF015.jpg	FF016.jpg	black	asian
79.91606279974803	1.0162825002335012	feedback_social_loss_neutral	n/a	n/a	n/a	F	FF015.jpg	FF016.jpg	black	asian
80.9324767999351	1.000123499892652	ITI	n/a	n/a	n/a	F	FF015.jpg	FF016.jpg	black	asian
81.94002000009641	2.5003166999667883	decision_social_win	1.7362932995893061	7	left	F	FF041.jpg	FF042.jpg	latino	white
84.44048290001228	0.5090526998974383	ISI	n/a	n/a	n/a	F	FF041.jpg	FF042.jpg	latino	white
84.94960859976709	1.0165631999261677	feedback_social_win_positive	n/a	n/a	n/a	F	FF041.jpg	FF042.jpg	latino	white
85.96630680002272	3.016346499789506	ITI	n/a	n/a	n/a	F	FF041.jpg	FF042.jpg	latino	white
88.99016320006922	2.5006994996219873	decision_social_loss	1.785769599955529	2	right	F	FF019.jpg	FF020.jpg	latino	asian
91.49101680004969	1.0080407997593284	ISI	n/a	n/a	n/a	F	FF019.jpg	FF020.jpg	latino	asian
92.49911359976977	1.0005534002557397	feedback_social_loss_neutral	n/a	n/a	n/a	F	FF019.jpg	FF020.jpg	latino	asian
93.49980610003695	1.0159396999515593	ITI	n/a	n/a	n/a	F	FF019.jpg	FF020.jpg	latino	asian
94.52325939992443	2.500717599876225	decision_social_win	1.2526007001288235	2	right	M	MF023.jpg	MF024.jpg	black	asian
97.02412209985778	2.0090095000341535	ISI	n/a	n/a	n/a	M	MF023.jpg	MF024.jpg	black	asian
99.03318820009008	1.016156299971044	feedback_social_win_neutral	n/a	n/a	n/a	M	MF023.jpg	MF024.jpg	black	asian
100.0494841998443	2.01620680000633	ITI	n/a	n/a	n/a	M	MF023.jpg	MF024.jpg	black	asian
102.07362090004608	2.5010521998628974	decision_social_win	1.135447799693793	7	left	F	FF021.jpg	FF022.jpg	black	latino
104.5748485000804	0.5078261997550726	ISI	n/a	n/a	n/a	F	FF021.jpg	FF022.jpg	black	latino
105.08273239992559	1.0166390999220312	feedback_social_win_neutral	n/a	n/a	n/a	F	FF021.jpg	FF022.jpg	black	latino
106.09951000008732	3.000131099950522	ITI	n/a	n/a	n/a	F	FF021.jpg	FF022.jpg	black	latino
109.10712839988992	2.5005544000305235	decision_social_loss	1.7853744998574257	7	left	M	MF009.jpg	MF010.jpg	latino	asian
111.60783729981631	0.5082176001742482	ISI	n/a	n/a	n/a	M	MF009.jpg	MF010.jpg	latino	asian
112.11611289996654	1.016774300020188	feedback_social_loss_negative	n/a	n/a	n/a	M	MF009.jpg	MF010.jpg	latino	asian
113.13302609976381	0.9999609002843499	ITI	n/a	n/a	n/a	M	MF009.jpg	MF010.jpg	latino	asian
114.14093269966543	2.5004705004394054	decision_social_loss	1.6349421003833413	2	right	M	MF019.jpg	MF020.jpg	white	latino
116.64155509974808	1.0081182001158595	ISI	n/a	n/a	n/a	M	MF019.jpg	MF020.jpg	white	latino
117.64972939994186	1.0159082999452949	feedback_social_loss_neutral	n/a	n/a	n/a	M	MF019.jpg	MF020.jpg	white	latino
118.66576729994267	0.9999831998720765	ITI	n/a	n/a	n/a	M	MF019.jpg	MF020.jpg	white	latino
119.673523100093	2.5000020996667445	decision_social_win	0.6190390000119805	7	left	F	FF039.jpg	FF040.jpg	white	black
122.17368629993871	1.5086473999544978	ISI	n/a	n/a	n/a	F	FF039.jpg	FF040.jpg	white	black
123.68240020005032	1.0006637000478804	feedback_social_win_positive	n/a	n/a	n/a	F	FF039.jpg	FF040.jpg	white	black
124.6832049000077	1.015686099883169	ITI	n/a	n/a	n/a	F	FF039.jpg	FF040.jpg	white	black
125.70634019980207	2.5018004002049565	decision_social_win	0.5864979000762105	2	right	M	MF027.jpg	MF028.jpg	white	black
128.20832270011306	0.5079637998715043	ISI	n/a	n/a	n/a	M	MF027.jpg	MF028.jpg	white	black
128.7163418000564	1.0163493999280035	feedback_social_win_neutral	n/a	n/a	n/a	M	MF027.jpg	MF028.jpg	white	black
129.7328401999548	3.000257399864495	ITI	n/a	n/a	n/a	M	MF027.jpg	MF028.jpg	white	black
132.74067159974948	2.5014387001283467	decision_social_loss	0.4684536000713706	7	left	M	MF003.jpg	MF004.jpg	latino	white
135.24230789998546	2.0073430999182165	ISI	n/a	n/a	n/a	M	MF003.jpg	MF004.jpg	latino	white
137.2497072997503	1.0165961002930999	feedback_social_loss_negative	n/a	n/a	n/a	M	MF003.jpg	MF004.jpg	latino	white
138.26646590000018	3.016407999675721	ITI	n/a	n/a	n/a	M	MF003.jpg	MF004.jpg	latino	white
141.2905831998214	2.499961200170219	decision_social_win	0.33516590017825365	2	right	M	MF037.jpg	MF038.jpg	asian	latino
143.79070300003514	0.5089205000549555	ISI	n/a	n/a	n/a	M	MF037.jpg	MF038.jpg	asian	latino
144.29968369985	1.0159291001036763	feedback_social_win_positive	n/a	n/a	n/a	M	MF037.jpg	MF038.jpg	asian	latino
145.3157468000427	1.017028999980539	ITI	n/a	n/a	n/a	M	MF037.jpg	MF038.jpg	asian	latino
146.34109599981457	2.5006494000554085	decision_social_win	0.6018444001674652	7	left	F	FF031.jpg	FF032.jpg	latino	black
148.84189660008997	1.0077406000345945	ISI	n/a	n/a	n/a	F	FF031.jpg	FF032.jpg	latino	black
149.8496984001249	1.0161942997947335	feedback_social_win_positive	n/a	n/a	n/a	F	FF031.jpg	FF032.jpg	latino	black
150.8660383997485	5.016202100086957	ITI	n/a	n/a	n/a	F	FF031.jpg	FF032.jpg	latino	black
155.88968520006165	2.5010976996272802	decision_social_loss	0.5694916998036206	2	right	M	MF005.jpg	MF006.jpg	white	black
158.3909342996776	0.5085121002048254	ISI	n/a	n/a	n/a	M	MF005.jpg	MF006.jpg	white	black
158.8995023998432	1.0160790998488665	feedback_social_loss_negative	n/a	n/a	n/a	M	MF005.jpg	MF006.jpg	white	black
159.91571549978107	3.000175700057298	ITI	n/a	n/a	n/a	M	MF005.jpg	MF006.jpg	white	black
162.9214872000739	2.5010214997455478	decision_social_loss	0.7716978997923434	2	right	F	FF009.jpg	FF010.jpg	asian	white
165.42266079969704	0.5105024999938905	ISI	n/a	n/a	n/a	F	FF009.jpg	FF010.jpg	asian	white
165.93322749994695	1.0159613997675478	feedback_social_loss_negative	n/a	n/a	n/a	F	FF009.jpg	FF010.jpg	asian	white
166.94931800011545	1.0163623997941613	ITI	n/a	n/a	n/a	F	FF009.jpg	FF010.jpg	asian	white
167.97169960010797	2.5014751995913684	decision_social_loss	0.7378425998613238	7	left	F	FF017.jpg	FF018.jpg	asian	asian
170.47337389970198	2.00970369996503	ISI	n/a	n/a	n/a	F	FF017.jpg	FF018.jpg	asian	asian
172.48314310004935	1.0163213000632823	feedback_social_loss_neutral	n/a	n/a	n/a	F	FF017.jpg	FF018.jpg	asian	asian
173.4996078000404	0.99997069966048	ITI	n/a	n/a	n/a	F	FF017.jpg	FF018.jpg	asian	asian
174.5071979998611	2.5003825002349913	decision_social_loss	1.6192359998822212	2	right	M	MF001.jpg	MF002.jpg	black	asian
177.00773350009695	0.508033599704504	ISI	n/a	n/a	n/a	M	MF001.jpg	MF002.jpg	black	asian
177.51582169998437	1.0000960999168456	feedback_social_loss_negative	n/a	n/a	n/a	M	MF001.jpg	MF002.jpg	black	asian
178.51605889992788	2.0001103999093175	ITI	n/a	n/a	n/a	M	MF001.jpg	MF002.jpg	black	asian
180.52384789986536	2.5014009000733495	decision_social_win	0.9688324998132885	2	right	M	MF033.jpg	MF034.jpg	white	latino
183.02543179970235	0.506910300347954	ISI	n/a	n/a	n/a	M	MF033.jpg	MF034.jpg	white	latino
183.53240490006283	1.0000001997686923	feedback_social_win_positive	n/a	n/a	n/a	M	MF033.jpg	MF034.jpg	white	latino
184.53254200005904	1.0164422998204827	ITI	n/a	n/a	n/a	M	MF033.jpg	MF034.jpg	white	latino
185.5565849998966	2.5012978999875486	decision_social_loss	1.1358643001876771	2	right	F	FF013.jpg	FF014.jpg	white	black
188.0580448997207	2.0084176999516785	ISI	n/a	n/a	n/a	F	FF013.jpg	FF014.jpg	white	black
190.06651769997552	1.0159650999121368	feedback_social_loss_negative	n/a	n/a	n/a	F	FF013.jpg	FF014.jpg	white	black
191.08262619981542	0.9999633999541402	ITI	n/a	n/a	n/a	F	FF013.jpg	FF014.jpg	white	black
192.0902661997825	2.5011625001206994	decision_social_win	0.9355013002641499	7	left	F	FF027.jpg	FF028.jpg	latino	asian
194.59158709971234	1.0074919001199305	ISI	n/a	n/a	n/a	F	FF027.jpg	FF028.jpg	latino	asian
195.59913699980825	1.000383600126952	feedback_social_win_neutral	n/a	n/a	n/a	F	FF027.jpg	FF028.jpg	latino	asian
196.5996651998721	2.000028199981898	ITI	n/a	n/a	n/a	F	FF027.jpg	FF028.jpg	latino	asian
198.60738669987768	2.5005729999393225	decision_social_win	0.8355021998286247	2	right	F	FF037.jpg	FF038.jpg	latino	latino
201.10811859974638	0.5076411999762058	ISI	n/a	n/a	n/a	F	FF037.jpg	FF038.jpg	latino	latino
201.61582370009273	1.0165541996248066	feedback_social_win_positive	n/a	n/a	n/a	F	FF037.jpg	FF038.jpg	latino	latino
202.63251339970157	4.000268700066954	ITI	n/a	n/a	n/a	F	FF037.jpg	FF038.jpg	latino	latino
206.64051209995523	2.5012853001244366	decision_social_win	0.9019363997504115	2	right	F	FF035.jpg	FF036.jpg	latino	black
209.14194819983095	0.5069643002934754	ISI	n/a	n/a	n/a	F	FF035.jpg	FF036.jpg	latino	black
209.64896579971537	1.0173324001953006	feedback_social_win_positive	n/a	n/a	n/a	F	FF035.jpg	FF036.jpg	latino	black
210.66644159983844	1.0160075998865068	ITI	n/a	n/a	n/a	F	FF035.jpg	FF036.jpg	latino	black
211.69005909981206	2.500612699892372	decision_social_win	1.1524614999070764	7	left	F	FF029.jpg	FF030.jpg	asian	white
214.19082819996402	0.5089452997781336	ISI	n/a	n/a	n/a	F	FF029.jpg	FF030.jpg	asian	white
214.6998367998749	1.0160444998182356	feedback_social_win_positive	n/a	n/a	n/a	F	FF029.jpg	FF030.jpg	asian	white
215.71601069997996	1.0001755999401212	ITI	n/a	n/a	n/a	F	FF029.jpg	FF030.jpg	asian	white
216.72399209998548	2.5007878998294473	decision_social_loss	0.8517801999114454	2	right	F	FF005.jpg	FF006.jpg	white	asian
219.22493680007756	1.507772000040859	ISI	n/a	n/a	n/a	F	FF005.jpg	FF006.jpg	white	asian
220.73277489980683	1.0165307000279427	feedback_social_loss_negative	n/a	n/a	n/a	F	FF005.jpg	FF006.jpg	white	asian
221.7494521997869	5.016772199887782	ITI	n/a	n/a	n/a	F	FF005.jpg	FF006.jpg	white	asian
226.7740857996978	2.501493399962783	decision_social_loss	1.0517172999680042	2	right	M	MF011.jpg	MF012.jpg	latino	black
229.27573499968275	0.5070807002484798	ISI	n/a	n/a	n/a	M	MF011.jpg	MF012.jpg	latino	black
229.7828708998859	1.016049699857831	feedback_social_loss_negative	n/a	n/a	n/a	M	MF011.jpg	MF012.jpg	latino	black
230.79905349994078	3.999965799972415	ITI	n/a	n/a	n/a	M	MF011.jpg	MF012.jpg	latino	black
234.80675379978493	2.5011207000352442	decision_social_loss	1.7029595002532005	2	right	M	MF021.jpg	MF022.jpg	black	latino
237.3080321997404	0.5083874999545515	ISI	n/a	n/a	n/a	M	MF021.jpg	MF022.jpg	black	latino
237.81647570012137	1.0157572999596596	feedback_social_loss_neutral	n/a	n/a	n/a	M	MF021.jpg	MF022.jpg	black	latino
238.83239319967106	1.000396199990064	ITI	n/a	n/a	n/a	M	MF021.jpg	MF022.jpg	black	latino
239.84048060001805	2.5006944998167455	decision_social_loss	0.8854161999188364	7	left	F	FF003.jpg	FF004.jpg	black	white
242.34133959980682	1.5082241999916732	ISI	n/a	n/a	n/a	F	FF003.jpg	FF004.jpg	black	white
243.84963499987498	1.0167568000033498	feedback_social_loss_negative	n/a	n/a	n/a	F	FF003.jpg	FF004.jpg	black	white
244.86653969995677	4.015987900085747	ITI	n/a	n/a	n/a	F	FF003.jpg	FF004.jpg	black	white
248.89012279966846	2.501783300191164	decision_social_win	0.5689958003349602	2	right	F	FF033.jpg	FF034.jpg	black	white
251.39206400001422	1.5070229996927083	ISI	n/a	n/a	n/a	F	FF033.jpg	FF034.jpg	black	white
252.89914159988984	1.0002379999496043	feedback_social_win_positive	n/a	n/a	n/a	F	FF033.jpg	FF034.jpg	black	white
253.8995237997733	2.999950600322336	ITI	n/a	n/a	n/a	F	FF033.jpg	FF034.jpg	black	white
256.9073342997581	2.500440699979663	decision_social_loss	0.6352357999421656	7	left	M	MF013.jpg	MF014.jpg	latino	asian
259.40793030010536	0.5083031998947263	ISI	n/a	n/a	n/a	M	MF013.jpg	MF014.jpg	latino	asian
259.9162897998467	1.0160676999948919	feedback_social_loss_negative	n/a	n/a	n/a	M	MF013.jpg	MF014.jpg	latino	asian
260.9324930999428	2.0163837000727654	ITI	n/a	n/a	n/a	M	MF013.jpg	MF014.jpg	latino	asian
262.95663469983265	2.5003829998895526	decision_social_loss	0.38566070003435016	2	right	M	MF007.jpg	MF008.jpg	asian	white
265.45717439986765	2.0085057001560926	ISI	n/a	n/a	n/a	M	MF007.jpg	MF008.jpg	asian	white
267.465734699741	1.0005959002301097	feedback_social_loss_negative	n/a	n/a	n/a	M	MF007.jpg	MF008.jpg	asian	white
268.466482100077	4.016389899887145	ITI	n/a	n/a	n/a	M	MF007.jpg	MF008.jpg	asian	white
272.49084670003504	2.500279299914837	decision_social_loss	0.41841069981455803	2	right	F	FF007.jpg	FF008.jpg	asian	black
274.99128339998424	0.5080069000832736	ISI	n/a	n/a	n/a	F	FF007.jpg	FF008.jpg	asian	black
275.4993471996859	1.0162383001297712	feedback_social_loss_negative	n/a	n/a	n/a	F	FF007.jpg	FF008.jpg	asian	black
276.5157289998606	3.0000093998387456	ITI	n/a	n/a	n/a	F	FF007.jpg	FF008.jpg	asian	black
279.5232345997356	2.5000758999958634	decision_social_win	0.45242940029129386	2	right	F	FF025.jpg	FF026.jpg	black	latino
282.02352689998224	0.5092416000552475	ISI	n/a	n/a	n/a	F	FF025.jpg	FF026.jpg	black	latino
282.5328231998719	1.0160107999108732	feedback_social_win_neutral	n/a	n/a	n/a	F	FF025.jpg	FF026.jpg	black	latino
283.5489703998901	2.9999568997882307	ITI	n/a	n/a	n/a	F	FF025.jpg	FF026.jpg	black	latino
286.5568421999924	2.500097299925983	decision_social_win	0.3855540999211371	7	left	M	MF025.jpg	MF026.jpg	white	asian
289.057097800076	0.5093274000100791	ISI	n/a	n/a	n/a	M	MF025.jpg	MF026.jpg	white	asian
289.56648109992966	1.016417299862951	feedback_social_win_neutral	n/a	n/a	n/a	M	MF025.jpg	MF026.jpg	white	asian
290.5830442998558	6.016523799858987	ITI	n/a	n/a	n/a	M	MF025.jpg	MF026.jpg	white	asian
