onset	duration	trial_type	rt	resp	selection	gender	image	image_type
0.0	1.0	ISI	n/a	n/a	n/a	n/a	n/a	n/a
1.0204214000841603	2.751922699972056	decision_social	2.05929250002373	1	recall_win	F	FF024.jpg	asian
3.7727096000453457	5.25130560004618	ISI	n/a	n/a	n/a	F	FF024.jpg	asian
9.028944700025022	2.7514619000721723	decision_social	1.5077815999975428	1	recall_win	F	FF001.jpg	latino
11.780807000002824	5.750187900033779	ISI	n/a	n/a	n/a	F	FF001.jpg	latino
17.53573550004512	2.7522622999968007	decision_social	2.5421753000700846	2	recall_loss	M	MF022.jpg	latino
20.28835909999907	5.516088200034574	ISI	n/a	n/a	n/a	M	MF022.jpg	latino
25.809317200095393	2.764047099975869	decision_social_MISSED	missed	missed	missed	M	MF036.jpg	black
28.573711900040507	1.7502499000402167	ISI	0.06693860003724694	8	predict_win	M	MF036.jpg	black
30.3284549000673	2.751484500011429	decision_social	1.692586199962534	1	recall_win	F	FF011.jpg	white
33.080304000061005	1.2646040000254288	ISI	n/a	n/a	n/a	F	FF011.jpg	white
34.349749400047585	2.7508444000268355	decision_social	1.8749066999880597	8	predict_win	M	MF034.jpg	latino
37.10095240001101	6.501368300057948	ISI	n/a	n/a	n/a	M	MF034.jpg	latino
43.607088900054805	2.7517237999709323	decision_social	2.125209299963899	2	recall_loss	M	MF021.jpg	black
46.35920570010785	3.264971299911849	ISI	n/a	n/a	n/a	M	MF021.jpg	black
49.62909380008932	2.752341100014746	decision_social	2.073739600018598	1	recall_win	F	FF020.jpg	asian
52.38179860007949	5.015327699948102	ISI	n/a	n/a	n/a	F	FF020.jpg	asian
57.40199330006726	2.750616700039245	decision_social	1.7737987999571487	8	predict_win	F	FF005.jpg	white
60.152973300078884	3.7662316999631003	ISI	n/a	n/a	n/a	F	FF005.jpg	white
63.924032200011425	2.7519899000180885	decision_social	2.3586761000333354	8	predict_win	M	MF024.jpg	asian
66.67638160008937	2.763917899923399	ISI	n/a	n/a	n/a	M	MF024.jpg	asian
69.44501780008432	2.7520753999706358	decision_social	1.740559099940583	2	recall_loss	M	MF009.jpg	latino
72.19745270011481	1.5133145999861881	ISI	n/a	n/a	n/a	M	MF009.jpg	latino
73.71564330009278	2.7519547999836504	decision_social	1.7568591999588534	1	recall_win	F	FF007.jpg	asian
76.46795850002673	2.013123400043696	ISI	n/a	n/a	n/a	F	FF007.jpg	asian
78.48601320001762	2.7514500999823213	decision_social	1.7914346000179648	2	recall_loss	M	MF030.jpg	black
81.23782550008036	2.5142209000186995	ISI	n/a	n/a	n/a	M	MF030.jpg	black
83.75696160004009	2.7518773999763653	decision_social	1.5570883000036702	1	recall_win	F	FF003.jpg	black
86.5091975000687	5.516426499933004	ISI	n/a	n/a	n/a	F	FF003.jpg	black
92.03056060010567	2.751256899908185	decision_social	1.8746771999867633	1	recall_win	M	MF042.jpg	asian
94.78217650006991	3.7656391999917105	ISI	n/a	n/a	n/a	M	MF042.jpg	asian
98.55273550003767	2.750761599978432	decision_social	2.675291800056584	9	predict_loss	F	FF002.jpg	black
101.30385770008434	1.5139515999471769	ISI	n/a	n/a	n/a	F	FF002.jpg	black
102.82282770005986	2.7517499000532553	decision_social	2.0740623000310734	1	recall_win	F	FF018.jpg	asian
105.57493790006265	2.5141643999377266	ISI	n/a	n/a	n/a	F	FF018.jpg	asian
108.09396410000045	2.7519988000858575	decision_social	2.1904523000121117	2	recall_loss	F	FF036.jpg	black
110.84633690002374	3.013692400068976	ISI	n/a	n/a	n/a	F	FF036.jpg	black
113.86512320011389	2.751973499893211	decision_social	2.15812219993677	1	recall_win	F	FF038.jpg	latino
116.61745750007685	1.2626944000367075	ISI	n/a	n/a	n/a	F	FF038.jpg	latino
117.88499000004958	2.7517763000214472	decision_social	2.3253811000613496	8	predict_win	M	MF028.jpg	black
120.63712920004036	2.2639148000162095	ISI	n/a	n/a	n/a	M	MF028.jpg	black
122.90598070004489	2.7640206000069156	decision_social_MISSED	missed	missed	missed	M	MF019.jpg	white
125.67034740000963	1.2518278000643477	ISI	0.033902800059877336	8	predict_win	M	MF019.jpg	white
126.92717380006798	2.7628028000472113	decision_social_MISSED	missed	missed	missed	F	FF015.jpg	black
129.69032440008596	2.750986099941656	ISI	0.2342446999391541	3	recall_neutral	F	FF015.jpg	black
132.44650360010564	2.7517521999543533	decision_social	2.192520899930969	2	recall_loss	M	MF025.jpg	white
135.19862690009177	1.0129886999493465	ISI	n/a	n/a	n/a	M	MF025.jpg	white
136.21657610009424	2.7507127999560907	decision_social	2.107478699996136	8	predict_win	M	MF015.jpg	black
138.96767280006316	6.501932600047439	ISI	n/a	n/a	n/a	M	MF015.jpg	black
145.4745706000831	2.7504193999338895	decision_social	1.607556900009513	8	predict_win	M	MF008.jpg	white
148.22535160009284	1.264260199968703	ISI	n/a	n/a	n/a	M	MF008.jpg	white
149.49459540005773	2.7518108000513166	decision_social	1.7567487000487745	1	recall_win	M	MF017.jpg	white
152.24678310006857	2.013412700034678	ISI	n/a	n/a	n/a	M	MF017.jpg	white
154.26523340004496	2.7519106999970973	decision_social	1.9917584999930114	3	recall_neutral	M	MF007.jpg	asian
157.0175393000245	2.013292400049977	ISI	n/a	n/a	n/a	M	MF007.jpg	asian
159.0358380000107	2.7521951000671834	decision_social	2.0916317000519484	1	recall_win	M	MF003.jpg	latino
161.78840540000238	1.012133900076151	ISI	n/a	n/a	n/a	M	MF003.jpg	latino
162.80564580007922	2.751945700030774	decision_social	2.0740414999891073	9	predict_loss	M	MF010.jpg	asian
165.557953700074	1.0123713000211865	ISI	n/a	n/a	n/a	M	MF010.jpg	asian
166.5754159000935	2.751610599923879	decision_social	2.1905964999459684	1	recall_win	F	FF023.jpg	white
169.3273920000065	4.765767400036566	ISI	n/a	n/a	n/a	F	FF023.jpg	white
174.09837150003295	2.7521852999925613	decision_social	1.4575228000758216	1	recall_win	F	FF006.jpg	asian
176.85092160000931	1.2622497000265867	ISI	n/a	n/a	n/a	F	FF006.jpg	asian
178.1183598000789	2.7522380999289453	decision_social	1.5069312999257818	1	recall_win	F	FF016.jpg	asian
180.87095880007837	1.0120618999935687	ISI	n/a	n/a	n/a	F	FF016.jpg	asian
181.88805060007144	2.752028499962762	decision_social	1.6411044000415131	2	recall_loss	M	MF001.jpg	black
184.64043990010396	2.7636885999236256	ISI	n/a	n/a	n/a	M	MF001.jpg	black
187.409114100039	2.7504732999950647	decision_social	1.4076480000512674	1	recall_win	F	FF027.jpg	latino
190.15995100000873	1.2642485999967903	ISI	n/a	n/a	n/a	F	FF027.jpg	latino
191.42925380007364	2.75110280001536	decision_social	2.424350899993442	2	recall_loss	M	MF013.jpg	latino
194.18071730004158	1.0131382000399753	ISI	n/a	n/a	n/a	M	MF013.jpg	latino
195.1990400000941	2.751094799954444	decision_social	1.9080333999590948	3	recall_neutral	F	FF031.jpg	latino
197.95049490011297	2.764773999922909	ISI	n/a	n/a	n/a	F	FF031.jpg	latino
200.72037310001906	2.7518841000273824	decision_social	2.056723300018348	1	recall_win	F	FF021.jpg	black
203.4726198000135	3.26418190007098	ISI	n/a	n/a	n/a	F	FF021.jpg	black
206.74189460009802	2.7521211999701336	decision_social	2.2404589999932796	1	recall_win	F	FF019.jpg	latino
209.4943792000413	3.5143501000711694	ISI	n/a	n/a	n/a	F	FF019.jpg	latino
213.01387850008905	2.7512565000215545	decision_social	1.7901521999156103	3	recall_neutral	M	MF033.jpg	white
215.76549820008222	1.0130213999655098	ISI	n/a	n/a	n/a	M	MF033.jpg	white
216.7838965000119	2.7510150000452995	decision_social	1.6729929000139236	3	recall_neutral	F	FF039.jpg	white
219.53530780004803	1.5134617000585422	ISI	n/a	n/a	n/a	F	FF039.jpg	white
221.05391190003138	2.751294600078836	decision_social	1.8732504000654444	3	recall_neutral	M	MF037.jpg	asian
223.80556710006204	1.0127572000492364	ISI	n/a	n/a	n/a	M	MF037.jpg	asian
224.8239124000538	2.750598300015554	decision_social	1.4561345999827608	1	recall_win	F	FF028.jpg	asian
227.574907500064	6.2507657000096515	ISI	n/a	n/a	n/a	F	FF028.jpg	asian
233.83083790005185	2.7518262000521645	decision_social	1.289785800036043	1	recall_win	M	MF038.jpg	latino
236.58302440005355	4.015066700056195	ISI	n/a	n/a	n/a	M	MF038.jpg	latino
240.60328030004166	2.7506818000692874	decision_social	2.6902648999821395	3	recall_neutral	F	FF029.jpg	asian
243.35433000000194	1.7637285001110286	ISI	n/a	n/a	n/a	F	FF029.jpg	asian
245.12339080008678	2.750872000004165	decision_social	2.1902926999609917	1	recall_win	F	FF008.jpg	black
247.87461960001383	1.0134898000396788	ISI	n/a	n/a	n/a	F	FF008.jpg	black
248.89328670001123	2.751347800018266	decision_social	1.5398870999924839	2	recall_loss	M	MF039.jpg	black
251.64499920001253	1.5132202000822872	ISI	n/a	n/a	n/a	M	MF039.jpg	black
253.16347920009866	2.7515104999765754	decision_social	1.4743100999621674	3	recall_neutral	F	FF033.jpg	black
255.9153652000241	4.515566700021736	ISI	n/a	n/a	n/a	F	FF033.jpg	black
260.43618810002226	2.7513897999888286	decision_social	1.4904456000076607	1	recall_win	M	MF032.jpg	white
263.18793990009	1.7633991999318823	ISI	n/a	n/a	n/a	M	MF032.jpg	white
264.95678850007243	2.751873999950476	decision_social	1.3068520999513566	1	recall_win	F	FF037.jpg	latino
267.7090266000014	2.2630497000645846	ISI	n/a	n/a	n/a	F	FF037.jpg	latino
269.9773436000105	2.7514754000585526	decision_social	1.089913300005719	2	recall_loss	M	MF012.jpg	black
272.7291795000201	3.0144552000565454	ISI	n/a	n/a	n/a	M	MF012.jpg	black
275.74889640009496	2.752065600012429	decision_social	1.6071105999872088	3	recall_neutral	F	FF009.jpg	asian
278.5013226000592	3.0135912999976426	ISI	n/a	n/a	n/a	F	FF009.jpg	asian
281.5201405000407	2.751442200038582	decision_social	1.9899615000467747	1	recall_win	F	FF030.jpg	white
284.2719618000556	1.7637603000039235	ISI	n/a	n/a	n/a	F	FF030.jpg	white
286.0410796001088	2.7509387999307364	decision_social	1.3069712999276817	3	recall_neutral	F	FF035.jpg	latino
288.792382500018	2.7643142000306398	ISI	n/a	n/a	n/a	F	FF035.jpg	latino
291.5621249000542	2.751450499985367	decision_social	1.2726527999620885	1	recall_win	F	FF025.jpg	black
294.313933400088	1.5131065999157727	ISI	n/a	n/a	n/a	F	FF025.jpg	black
295.83294079999905	2.7520040000090376	decision_social	1.2895735000493005	3	recall_neutral	M	MF020.jpg	latino
298.5853078000946	2.262242199969478	ISI	n/a	n/a	n/a	M	MF020.jpg	latino
300.8529267000267	2.7513215000508353	decision_social	2.4915259000845253	8	predict_win	M	MF006.jpg	black
303.6046429000562	2.0134691999992356	ISI	n/a	n/a	n/a	M	MF006.jpg	black
305.6235173000023	2.7514633000828326	decision_social	2.291540800011717	8	predict_win	M	MF027.jpg	white
308.37534500006586	1.263001700048335	ISI	n/a	n/a	n/a	M	MF027.jpg	white
309.64375030004885	2.774244699976407	decision_social	2.7738716000458226	9	predict_loss	M	MF004.jpg	white
312.41838550008833	3.0078105999855325	ISI	n/a	n/a	n/a	M	MF004.jpg	white
315.43176370009314	2.751198699930683	decision_social	2.156531099928543	8	predict_win	M	MF035.jpg	latino
318.18332510010805	4.01515200000722	ISI	n/a	n/a	n/a	M	MF035.jpg	latino
322.2040774000343	2.7508920000400394	decision_social	1.7908330999780446	1	recall_win	M	MF002.jpg	asian
324.9553317000391	1.2630662000738084	ISI	n/a	n/a	n/a	M	MF002.jpg	asian
326.22400150005706	2.750760299968533	decision_social	1.1400956000434235	1	recall_win	F	FF012.jpg	latino
328.97512210009154	1.7636506999842823	ISI	n/a	n/a	n/a	F	FF012.jpg	latino
330.7441776000196	2.7511666000355035	decision_social	2.42392650002148	2	recall_loss	M	MF018.jpg	latino
333.49570890003815	3.7652803000528365	ISI	n/a	n/a	n/a	M	MF018.jpg	latino
337.26645230001304	2.7504406000953168	decision_social	2.6237781000090763	3	recall_neutral	M	MF026.jpg	asian
340.0172532000579	3.2651783999754116	ISI	n/a	n/a	n/a	M	MF026.jpg	asian
343.2879114000825	2.75105199997779	decision_social	2.1246282999636605	1	recall_win	M	MF011.jpg	latino
346.0393583000405	2.0137608000077307	ISI	n/a	n/a	n/a	M	MF011.jpg	latino
348.05859670008067	2.751219099969603	decision_social	1.3727560000261292	1	recall_win	F	FF026.jpg	latino
350.81017580011394	1.2628440998960286	ISI	n/a	n/a	n/a	F	FF026.jpg	latino
352.07867700001225	2.7508417000062764	decision_social	2.0243445000378415	3	recall_neutral	F	FF014.jpg	black
354.82988270011265	3.765163499978371	ISI	n/a	n/a	n/a	F	FF014.jpg	black
358.60087439999916	2.751198700047098	decision_social	2.4734572001034394	1	recall_win	M	MF005.jpg	white
361.3524352000095	5.766730300034396	ISI	n/a	n/a	n/a	M	MF005.jpg	white
367.12456320005003	2.751259300042875	decision_social	2.274288499960676	1	recall_win	F	FF004.jpg	white
369.87618360004853	2.513590899994597	ISI	n/a	n/a	n/a	F	FF004.jpg	white
372.3953709000489	2.7515223999507725	decision_social	1.8566773000638932	8	predict_win	M	MF029.jpg	white
375.1472531000618	6.2500030000228435	ISI	n/a	n/a	n/a	M	MF029.jpg	white
381.4027593000792	2.750816799933091	decision_social	1.4059963999316096	1	recall_win	F	FF034.jpg	white
384.15393720008433	3.014598299982026	ISI	n/a	n/a	n/a	F	FF034.jpg	white
387.17409350001253	2.750889900024049	decision_social	1.9745041000423953	8	predict_win	M	MF014.jpg	asian
389.9253433000995	1.0131750999717042	ISI	n/a	n/a	n/a	M	MF014.jpg	asian
390.94398150010966	2.7507444999646395	decision_social	2.2235628999769688	8	predict_win	M	MF041.jpg	white
393.6950848000124	2.013863200088963	ISI	n/a	n/a	n/a	M	MF041.jpg	white
395.71456650004257	2.751379800029099	decision_social	1.3393211000366136	1	recall_win	M	MF016.jpg	asian
398.4663043000037	2.5137591999955475	ISI	n/a	n/a	n/a	M	MF016.jpg	asian
400.9856438001152	2.7505830998998135	decision_social	1.9237131999107078	8	predict_win	M	MF031.jpg	latino
403.73659790004604	1.0133262999588624	ISI	n/a	n/a	n/a	M	MF031.jpg	latino
404.7556123000104	2.7513680000556633	decision_social	1.1226014000130817	1	recall_win	F	FF041.jpg	latino
407.5073447000468	3.7644588999683037	ISI	n/a	n/a	n/a	F	FF041.jpg	latino
411.2777767000953	2.7513420999748632	decision_social	1.072751099942252	1	recall_win	F	FF013.jpg	white
414.0294800000265	1.5124978000530973	ISI	n/a	n/a	n/a	F	FF013.jpg	white
415.54759620002005	2.7511992000509053	decision_social	2.4746036999858916	8	predict_win	F	FF032.jpg	black
418.2991896000458	1.012701499974355	ISI	n/a	n/a	n/a	F	FF032.jpg	black
419.31746120005846	2.7509231000440195	decision_social	1.7397503999527544	8	predict_win	F	FF040.jpg	black
422.0687441000482	6.000183199997991	ISI	n/a	n/a	n/a	F	FF040.jpg	black
428.0746074001072	2.751503999927081	decision_social	1.357278999988921	8	predict_win	F	FF017.jpg	asian
430.82647290010937	2.26329019991681	ISI	n/a	n/a	n/a	F	FF017.jpg	asian
433.095431300113	2.7509495998965576	decision_social	1.0901969999540597	1	recall_win	F	FF022.jpg	latino
435.84674410009757	6.500590299954638	ISI	n/a	n/a	n/a	F	FF022.jpg	latino
442.3529433000367	2.751270500011742	decision_social	1.2403159000677988	2	recall_loss	M	MF023.jpg	black
445.1045753000071	1.5129963000072166	ISI	n/a	n/a	n/a	M	MF023.jpg	black
446.62344420002773	2.7511498000239953	decision_social	1.7905808000359684	1	recall_win	M	MF040.jpg	asian
449.374956500018	1.2627588000614196	ISI	n/a	n/a	n/a	M	MF040.jpg	asian
450.643589500105	2.7508960999548435	decision_social	1.023309399955906	1	recall_win	F	FF010.jpg	white
453.39488270005677	2.764166499953717	ISI	n/a	n/a	n/a	F	FF010.jpg	white
456.16466780006886	2.7508864999981597	decision_social	1.6057626999681816	1	recall_win	F	FF042.jpg	white
458.9159176000394	5.749976700055413	ISI	n/a	n/a	n/a	F	FF042.jpg	white
