onset	duration	trial_type	rt	resp	selection	gender	image	image_type
0.0	1.0	ISI	n/a	n/a	n/a	n/a	n/a	n/a
1.0201745000085793	2.751128999982029	decision_monetary	1.2911558999912813	9	recall_win	D	DD019.jpg	blue
3.771595600002911	3.261495599988848	ISI	n/a	n/a	n/a	D	DD019.jpg	blue
7.037101399968378	2.7509617000469007	decision_monetary	2.2402424000320025	9	recall_win	S	SD031.jpg	red
9.788440499978606	1.2613082000170834	ISI	n/a	n/a	n/a	S	SD031.jpg	red
11.053179499984253	2.75100950000342	decision_monetary	0.7573554000118747	3	predict_loss	S	SD014.jpg	black
13.804492199968081	1.0120801000157371	ISI	n/a	n/a	n/a	S	SD014.jpg	black
14.820030600007158	2.751295999973081	decision_monetary	0.9413456000038423	9	recall_win	S	SD004.jpg	white
17.571618999994826	3.011467900010757	ISI	n/a	n/a	n/a	S	SD004.jpg	white
20.58661790000042	2.7513348999782465	decision_monetary	2.0408208000008017	9	recall_win	S	SD022.jpg	red
23.33825779997278	1.0119728000136092	ISI	n/a	n/a	n/a	S	SD022.jpg	red
24.354002200008836	2.7519379999721423	decision_monetary	1.8243581000133418	9	recall_win	S	SD021.jpg	blue
27.10624170000665	2.0102880999911577	ISI	n/a	n/a	n/a	S	SD021.jpg	blue
29.119944999984	2.751224600011483	decision_monetary	1.189956300018821	2	predict_win	D	DD008.jpg	blue
31.871486200019717	2.5115313999704085	ISI	n/a	n/a	n/a	D	DD008.jpg	blue
34.38647389999824	2.751525799976662	decision_monetary	0.7749531000154093	3	predict_loss	D	DD010.jpg	green
37.13831900001969	2.7614037999883294	ISI	n/a	n/a	n/a	D	DD010.jpg	green
39.90326809999533	2.7518304000259377	decision_monetary	0.823922700015828	9	recall_win	S	SD023.jpg	blue
42.65540109999711	5.011373199988157	ISI	n/a	n/a	n/a	S	SD023.jpg	blue
47.67036089999601	2.7514058999950066	decision_monetary	1.4730238000047393	9	recall_win	D	DD005.jpg	brown
50.422074000001885	5.761002900020685	ISI	n/a	n/a	n/a	D	DD005.jpg	brown
56.1875343999709	2.7513345000334084	decision_monetary	1.4232287000049837	9	recall_win	D	DD035.jpg	brown
58.93921280000359	1.0104526999639347	ISI	n/a	n/a	n/a	D	DD035.jpg	brown
59.95320729998639	2.7517689000233077	decision_monetary	1.557116899988614	4	predict_neutral	D	DD033.jpg	red
62.70528669998748	1.0111671999911778	ISI	n/a	n/a	n/a	D	DD033.jpg	red
63.719986899988726	2.7629742000135593	decision_monetary_MISSED	missed	missed	missed	D	DD012.jpg	brown
66.48323010001332	2.0018897999543697	ISI	0.18373089999658987	9	recall_win	D	DD012.jpg	brown
68.4886982999742	2.7513098000199534	decision_monetary	0.6558014000183903	9	recall_win	D	DD015.jpg	blue
71.24032280000392	6.25933679996524	ISI	n/a	n/a	n/a	D	DD015.jpg	blue
77.5030897000106	2.751800199970603	decision_monetary	0.9422761999885552	4	predict_neutral	D	DD018.jpg	brown
80.25521129998378	1.511174299987033	ISI	n/a	n/a	n/a	D	DD018.jpg	brown
81.77016169996932	2.752139900054317	decision_monetary	0.6910917000495829	9	recall_win	S	SD038.jpg	brown
84.52260849997401	1.2604307000292465	ISI	n/a	n/a	n/a	S	SD038.jpg	brown
85.78659259999404	2.7503243000246584	decision_monetary	0.5743123000138439	3	predict_loss	D	DD013.jpg	brown
88.53723239997635	1.2624161000130698	ISI	n/a	n/a	n/a	D	DD013.jpg	brown
89.80333329999121	2.750683000020217	decision_monetary	0.6076904999790713	9	recall_win	D	DD009.jpg	white
92.55435440002475	1.512140799954068	ISI	n/a	n/a	n/a	D	DD009.jpg	white
94.07046879996778	2.7507058000192046	decision_monetary	0.5573943000053987	3	predict_loss	S	SD002.jpg	purple
96.82150369998999	2.0113250000285916	ISI	n/a	n/a	n/a	S	SD002.jpg	purple
98.83656009996776	2.7513206000439823	decision_monetary	1.1913679000572301	4	predict_neutral	D	DD027.jpg	blue
101.5881984999869	3.7614221000112593	ISI	n/a	n/a	n/a	D	DD027.jpg	blue
105.35328679997474	2.7506113999988884	decision_monetary	1.408058900036849	7	recall_neutral	D	DD034.jpg	purple
108.10421790002147	2.011971400002949	ISI	n/a	n/a	n/a	D	DD034.jpg	purple
110.12008929997683	2.7515395000227727	decision_monetary	0.6231655000010505	2	predict_win	D	DD024.jpg	white
112.8719565999927	3.0109265000210144	ISI	n/a	n/a	n/a	D	DD024.jpg	white
115.88666820002254	2.751376000000164	decision_monetary	1.2237010999815539	9	recall_win	S	SD013.jpg	blue
118.63836699997773	2.261235000041779	ISI	n/a	n/a	n/a	S	SD013.jpg	blue
120.90342849999433	2.751850900007412	decision_monetary	0.6579279000288807	2	predict_win	D	DD037.jpg	brown
123.65559739997843	2.5106095999944955	ISI	n/a	n/a	n/a	D	DD037.jpg	brown
126.1698703999864	2.7514542000135407	decision_monetary	0.707648399984464	4	predict_neutral	S	SD034.jpg	red
128.92164780001622	1.2611324999597855	ISI	n/a	n/a	n/a	S	SD034.jpg	red
130.18650319997687	2.7513484000228345	decision_monetary	0.9405455000232905	9	recall_win	D	DD029.jpg	brown
132.93818779999856	5.761406800011173	ISI	n/a	n/a	n/a	D	DD029.jpg	brown
138.70329049997963	2.7516237000236288	decision_monetary	0.9560970999882556	2	predict_win	D	DD007.jpg	blue
141.4552442000131	3.7609635000117123	ISI	n/a	n/a	n/a	D	DD007.jpg	blue
145.21993700001622	2.7505328999832273	decision_monetary	0.5912969000055455	9	recall_win	D	DD020.jpg	brown
147.97079629998188	5.512108399998397	ISI	n/a	n/a	n/a	D	DD020.jpg	brown
153.48671550001018	2.7512949999654666	decision_monetary	0.6895393999875523	7	recall_neutral	D	DD039.jpg	white
156.23834939999506	2.7613759000087157	ISI	n/a	n/a	n/a	D	DD039.jpg	white
159.00352789997123	2.750737000023946	decision_monetary	0.6569189000292681	3	predict_loss	D	DD014.jpg	green
161.75460260000546	2.0115869999863207	ISI	n/a	n/a	n/a	D	DD014.jpg	green
163.76991969998926	2.751074400031939	decision_monetary	0.8897096000146121	7	recall_neutral	S	SD020.jpg	green
166.52131989999907	3.2613770000170916	ISI	n/a	n/a	n/a	S	SD020.jpg	green
169.78644360002363	2.7514472999610007	decision_monetary	1.240827699948568	8	recall_loss	S	SD015.jpg	yellow
172.5382275999873	1.0112889999873005	ISI	n/a	n/a	n/a	S	SD015.jpg	yellow
173.55321530002402	2.750731399981305	decision_monetary	0.7070241999463178	9	recall_win	D	DD003.jpg	green
176.3042794999783	1.26186540001072	ISI	n/a	n/a	n/a	D	DD003.jpg	green
177.56991879997076	2.751235000032466	decision_monetary	0.5901170000433922	3	predict_loss	S	SD024.jpg	blue
180.32148589997087	1.2611571000306867	ISI	n/a	n/a	n/a	S	SD024.jpg	blue
181.58638960000826	2.7502268999814987	decision_monetary	2.2913910999777727	9	recall_win	S	SD032.jpg	purple
184.33695079997415	3.0124696000129916	ISI	n/a	n/a	n/a	S	SD032.jpg	purple
187.3531419999781	2.7517600000137463	decision_monetary	0.657183300005272	2	predict_win	D	DD016.jpg	brown
190.10526450001635	2.7606829999713227	ISI	n/a	n/a	n/a	D	DD016.jpg	brown
192.86967919999734	2.7504530000151135	decision_monetary	0.5236060000024736	7	recall_neutral	D	DD026.jpg	white
195.62046559998998	1.5126493999850936	ISI	n/a	n/a	n/a	D	DD026.jpg	white
197.13698609999847	2.7519978000200354	decision_monetary	1.1743484999751672	4	predict_neutral	S	SD030.jpg	red
199.88933229999384	2.5100790000287816	ISI	n/a	n/a	n/a	S	SD030.jpg	red
202.40318660001503	2.7503074999549426	decision_monetary	0.6570673999958672	2	predict_win	D	DD030.jpg	brown
205.15382619999582	1.5121801000204869	ISI	n/a	n/a	n/a	D	DD030.jpg	brown
206.66968659998383	2.7516366000054404	decision_monetary	0.8415721000055782	9	recall_win	S	SD010.jpg	yellow
209.42165660002502	1.760953499993775	ISI	n/a	n/a	n/a	S	SD010.jpg	yellow
211.18640419997973	2.7504107000422664	decision_monetary	0.6739022000110708	3	predict_loss	S	SD042.jpg	purple
213.93716329999734	1.2621078999945894	ISI	n/a	n/a	n/a	S	SD042.jpg	purple
215.20322799996939	2.7506694000330754	decision_monetary	0.7079684000345878	9	recall_win	S	SD001.jpg	green
217.95424130000174	4.011693399981596	ISI	n/a	n/a	n/a	S	SD001.jpg	green
221.96976690000156	2.750449799990747	decision_monetary	0.4904818999930285	2	predict_win	S	SD037.jpg	red
224.7205532999942	5.2620772999944165	ISI	n/a	n/a	n/a	S	SD037.jpg	red
229.98647709999932	2.7508467999869026	decision_monetary	0.6737399999983609	4	predict_neutral	D	DD011.jpg	brown
232.7376765999943	1.7624597999965772	ISI	n/a	n/a	n/a	D	DD011.jpg	brown
234.5039478999679	2.752107900043484	decision_monetary	0.6233386000385508	2	predict_win	D	DD022.jpg	blue
237.2564093999681	1.0094406000571325	ISI	n/a	n/a	n/a	D	DD022.jpg	blue
238.26971349999076	2.7522188000148162	decision_monetary	2.6234822000260465	9	recall_win	S	SD005.jpg	black
241.02225129998988	5.760341899993364	ISI	n/a	n/a	n/a	S	SD005.jpg	black
246.78647799999453	2.7503779000253417	decision_monetary	1.5245390000054613	9	recall_win	S	SD019.jpg	brown
249.5372059000074	3.261997399968095	ISI	n/a	n/a	n/a	S	SD019.jpg	brown
252.80309910001233	2.75178859999869	decision_monetary	0.47370609996141866	2	predict_win	S	SD011.jpg	blue
255.5552236000076	1.0105852999840863	ISI	n/a	n/a	n/a	S	SD011.jpg	blue
256.56963809998706	2.7517076000222005	decision_monetary	0.7241704000043683	4	predict_neutral	S	SD018.jpg	green
259.32168410002487	2.510897499974817	ISI	n/a	n/a	n/a	S	SD018.jpg	green
261.8366436000215	2.7505174999823794	decision_monetary	0.6742453999468125	8	recall_loss	S	SD026.jpg	gray
264.5874967999989	4.011695499997586	ISI	n/a	n/a	n/a	S	SD026.jpg	gray
268.60329529998126	2.7508367000264116	decision_monetary	0.873970000015106	9	recall_win	S	SD003.jpg	yellow
271.35448490001727	1.01128689997131	ISI	n/a	n/a	n/a	S	SD003.jpg	yellow
272.36963149998337	2.762939899985213	decision_monetary_MISSED	missed	missed	missed	D	DD028.jpg	red
275.1328537000227	4.516339599969797	ISI	n/a	n/a	n/a	D	DD028.jpg	red
279.6532871000236	2.750617899990175	decision_monetary	0.6073369999649003	4	predict_neutral	S	SD035.jpg	blue
282.40425660001347	6.011748299992178	ISI	n/a	n/a	n/a	S	SD035.jpg	blue
288.42002060002415	2.752103399951011	decision_monetary	0.7571970999706537	2	predict_win	S	SD012.jpg	brown
291.1724860999966	1.2600472000194713	ISI	n/a	n/a	n/a	S	SD012.jpg	brown
292.4364644999732	2.7514822000521235	decision_monetary	0.8226632000296377	9	recall_win	S	SD007.jpg	brown
295.18830420001177	2.7608027000096627	ISI	n/a	n/a	n/a	S	SD007.jpg	brown
297.9532264000154	2.751240699959453	decision_monetary	0.789984299975913	4	predict_neutral	D	DD036.jpg	brown
300.7048116999795	3.760842200019397	ISI	n/a	n/a	n/a	D	DD036.jpg	brown
304.4696577999857	2.7510357000282966	decision_monetary	0.4408353000180796	7	recall_neutral	S	SD017.jpg	blue
307.2210591000039	3.7613938999711536	ISI	n/a	n/a	n/a	S	SD017.jpg	blue
310.98640589998104	2.751873600005638	decision_monetary	1.2727983000222594	9	recall_win	D	DD032.jpg	red
313.7386422000127	6.510585099982563	ISI	n/a	n/a	n/a	D	DD032.jpg	red
320.2532314999844	2.7506507000070997	decision_monetary	0.955636200029403	4	predict_neutral	D	DD042.jpg	brown
323.00423730001785	2.0114389999653213	ISI	n/a	n/a	n/a	D	DD042.jpg	brown
325.0197103000246	2.750766199955251	decision_monetary	1.5394858999643475	9	recall_win	S	SD041.jpg	brown
327.77088809997076	6.511556500045117	ISI	n/a	n/a	n/a	S	SD041.jpg	brown
334.2869799999753	2.75120420003077	decision_monetary	0.6070902000064962	2	predict_win	S	SD036.jpg	black
337.03853770002024	1.010523299977649	ISI	n/a	n/a	n/a	S	SD036.jpg	black
338.05299759999616	2.7513550000148825	decision_monetary	0.6738610999891534	9	recall_win	D	DD001.jpg	blue
340.8047076999792	6.260894300008658	ISI	n/a	n/a	n/a	D	DD001.jpg	blue
347.06960859999526	2.7503590999986045	decision_monetary	0.8405844999942929	4	predict_neutral	S	SD040.jpg	brown
349.82032449997496	2.2620162999955937	ISI	n/a	n/a	n/a	S	SD040.jpg	brown
352.0864072999684	2.751238500000909	decision_monetary	0.723334500042256	9	recall_win	D	DD040.jpg	black
354.8381095000077	1.2608622999978252	ISI	n/a	n/a	n/a	D	DD040.jpg	black
356.10303920001024	2.7507371999672614	decision_monetary	0.7401246000081301	3	predict_loss	D	DD017.jpg	red
358.85417030000826	1.2615061000105925	ISI	n/a	n/a	n/a	D	DD017.jpg	red
360.1197036000085	2.7519683999707922	decision_monetary	0.7404591999948025	9	recall_win	D	DD006.jpg	brown
362.8720371000236	6.5103307999670506	ISI	n/a	n/a	n/a	D	DD006.jpg	brown
369.38660109997727	2.7504403000348248	decision_monetary	0.522707000025548	2	predict_win	S	SD006.jpg	black
372.1374024999677	1.5114506000536494	ISI	n/a	n/a	n/a	S	SD006.jpg	black
373.65293169999495	2.7506173999863677	decision_monetary	0.9397863000049256	9	recall_win	D	DD004.jpg	blue
376.4039007999818	1.7618558999965899	ISI	n/a	n/a	n/a	D	DD004.jpg	blue
378.1702394000022	2.7506472999812104	decision_monetary	0.5569708999828435	4	predict_neutral	S	SD039.jpg	blue
380.92129299999215	2.760884699993767	ISI	n/a	n/a	n/a	S	SD039.jpg	blue
383.68645440001274	2.750601199979428	decision_monetary	0.7897144999587908	7	recall_neutral	D	DD023.jpg	blue
386.4374155999976	2.2614296000101604	ISI	n/a	n/a	n/a	D	DD023.jpg	blue
388.70302449999144	2.751022699987516	decision_monetary	1.0562946000136435	3	predict_loss	S	SD009.jpg	blue
391.45440679998137	2.261016100004781	ISI	n/a	n/a	n/a	S	SD009.jpg	blue
393.71951470000204	2.751251899986528	decision_monetary	0.7566470999736339	9	recall_win	D	DD041.jpg	brown
396.4711512000067	2.761005899985321	ISI	n/a	n/a	n/a	D	DD041.jpg	brown
399.2364114000229	2.751384799950756	decision_monetary	0.5400964999571443	4	predict_neutral	S	SD027.jpg	green
401.98817139997846	1.7606041000108235	ISI	n/a	n/a	n/a	S	SD027.jpg	green
403.7528484999784	2.7510936000035144	decision_monetary	0.6733618000289425	2	predict_win	D	DD038.jpg	brown
406.5043178999913	3.511231400014367	ISI	n/a	n/a	n/a	D	DD038.jpg	brown
410.0196950000245	2.750447499973234	decision_monetary	1.1063177999458276	2	predict_win	S	SD008.jpg	blue
412.7705135999713	3.7620105000096373	ISI	n/a	n/a	n/a	S	SD008.jpg	blue
416.5374094999861	2.750866800022777	decision_monetary	0.7898014000384137	2	predict_win	D	DD031.jpg	pink
419.28864709998015	1.510071800032165	ISI	n/a	n/a	n/a	D	DD031.jpg	pink
420.80284129997017	2.7514162000152282	decision_monetary	0.8904344000038691	2	predict_win	S	SD033.jpg	brown
423.55463799997233	3.0108342000166886	ISI	n/a	n/a	n/a	S	SD033.jpg	brown
426.56970390002243	2.750459000002593	decision_monetary	1.1064385999925435	2	predict_win	S	SD029.jpg	black
429.32053510000696	1.0114637999795377	ISI	n/a	n/a	n/a	S	SD029.jpg	black
430.336137300008	2.7508072999771684	decision_monetary	1.1401837000157684	7	recall_neutral	S	SD025.jpg	green
433.08731540001463	1.0114615999627858	ISI	n/a	n/a	n/a	S	SD025.jpg	green
434.1030324000167	2.7517735000001267	decision_monetary	0.8241014999803156	9	recall_win	S	SD016.jpg	brown
436.85519620002015	4.760350299999118	ISI	n/a	n/a	n/a	S	SD016.jpg	brown
441.61979139997857	2.752052600029856	decision_monetary	0.7904195000301115	2	predict_win	D	DD021.jpg	red
444.3722209999687	1.5098446000483818	ISI	n/a	n/a	n/a	D	DD021.jpg	red
445.88622819999	2.7518480999860913	decision_monetary	2.372778200020548	3	predict_loss	D	DD025.jpg	brown
448.6384478000109	5.510151700000279	ISI	n/a	n/a	n/a	D	DD025.jpg	brown
454.15297980001196	2.7506813000072725	decision_monetary	0.9224656999576837	9	recall_win	D	DD002.jpg	brown
456.9040385999833	1.761369600018952	ISI	n/a	n/a	n/a	D	DD002.jpg	brown
458.6696335999877	2.7503622000222094	decision_monetary	1.0404745999840088	2	predict_win	S	SD028.jpg	grey
461.42036669998197	3.0116211000131443	ISI	n/a	n/a	n/a	S	SD028.jpg	grey
