onset	duration	trial_type	rt	resp	selection	gender	image	image_type
0.0	1.0	ISI	n/a	n/a	n/a	n/a	n/a	n/a
1.0200333999237046	2.751118400017731	decision_monetary	1.4567993000382558	3	predict_loss	D	DD015.jpg	blue
3.7714514000108466	2.5114597999490798	ISI	n/a	n/a	n/a	D	DD015.jpg	blue
6.286376699921675	2.751425900030881	decision_monetary	1.341820500092581	2	predict_win	D	DD041.jpg	brown
9.03812729998026	2.5116536000277847	ISI	n/a	n/a	n/a	D	DD041.jpg	brown
11.553149799932726	2.7515796000370756	decision_monetary	1.2419738000025973	3	predict_loss	D	DD024.jpg	white
14.305048999958672	6.261400099960156	ISI	n/a	n/a	n/a	D	DD024.jpg	white
20.569782699923962	2.7514855000190437	decision_monetary	1.2243250000756234	3	predict_loss	D	DD030.jpg	brown
23.321579599985853	3.761534499935806	ISI	n/a	n/a	n/a	D	DD030.jpg	brown
27.086532299988903	2.750305199995637	decision_monetary	1.074521900038235	4	predict_neutral	D	DD025.jpg	brown
29.837144499993883	1.5125123999314383	ISI	n/a	n/a	n/a	D	DD025.jpg	brown
31.35317000001669	2.751964999944903	decision_monetary	1.4241810999810696	2	predict_win	D	DD012.jpg	brown
34.10543619992677	6.510951300035231	ISI	n/a	n/a	n/a	D	DD012.jpg	brown
40.61982819996774	2.751315000001341	decision_monetary	1.8404433999676257	2	predict_win	D	DD021.jpg	red
43.37146039993968	6.5115831000730395	ISI	n/a	n/a	n/a	D	DD021.jpg	red
49.88666620000731	2.751295099966228	decision_monetary	1.38983349991031	4	predict_neutral	D	DD019.jpg	blue
52.63827809994109	6.26138899999205	ISI	n/a	n/a	n/a	D	DD019.jpg	blue
58.90347179991659	2.7523110000183806	decision_monetary	1.6903179000364617	2	predict_win	S	SD010.jpg	yellow
61.656095499987714	2.2601632999721915	ISI	n/a	n/a	n/a	S	SD010.jpg	yellow
63.91973229998257	2.750336099998094	decision_monetary	0.973883599974215	4	predict_neutral	D	DD017.jpg	red
66.67037339997478	3.0126052000559866	ISI	n/a	n/a	n/a	D	DD017.jpg	red
69.68634769995697	2.7507652000058442	decision_monetary	2.0743664000183344	2	predict_win	S	SD021.jpg	blue
72.43758679996245	1.5119491000659764	ISI	n/a	n/a	n/a	S	SD021.jpg	blue
73.95301860000473	2.7520849999273196	decision_monetary	2.3580463000107557	7	recall_neutral	D	DD027.jpg	blue
76.70542040001601	4.0108573999023065	ISI	n/a	n/a	n/a	D	DD027.jpg	blue
80.71973619994242	2.7519990000873804	decision_monetary	1.7749695000238717	9	recall_win	S	SD015.jpg	yellow
83.47204519994557	5.760836499975994	ISI	n/a	n/a	n/a	S	SD015.jpg	yellow
89.23637559998315	2.75039800000377	decision_monetary	1.5736568999709561	4	predict_neutral	S	SD024.jpg	blue
91.98709059995599	1.0123897000448778	ISI	n/a	n/a	n/a	S	SD024.jpg	blue
93.00298500002827	2.751089599914849	decision_monetary	1.858158899936825	2	predict_win	D	DD006.jpg	brown
95.75439609994646	3.261829400085844	ISI	n/a	n/a	n/a	D	DD006.jpg	brown
99.0197411000263	2.751355899963528	decision_monetary	1.7573020999552682	2	predict_win	S	SD027.jpg	green
101.77142320002895	1.2614592999452725	ISI	n/a	n/a	n/a	S	SD027.jpg	green
103.03641229995992	2.7504976000636816	decision_monetary	0.8247525000479072	4	predict_neutral	D	DD031.jpg	pink
105.78723120002542	1.0120770999928936	ISI	n/a	n/a	n/a	D	DD031.jpg	pink
106.80285189999267	2.7503587999381125	decision_monetary	2.174298799945973	2	predict_win	S	SD019.jpg	brown
109.55353699997067	1.0126667000586167	ISI	n/a	n/a	n/a	S	SD019.jpg	brown
110.56987399992067	2.75161720009055	decision_monetary	1.8732841000892222	9	recall_win	D	DD023.jpg	blue
113.32180929998867	2.7610409000189975	ISI	n/a	n/a	n/a	D	DD023.jpg	blue
116.08636479999404	2.7502447000006214	decision_monetary	1.4416015000315383	7	recall_neutral	S	SD009.jpg	blue
118.83693669992499	3.012505099992268	ISI	n/a	n/a	n/a	S	SD009.jpg	blue
121.85306979995221	2.773721900070086	decision_monetary	2.773498800001107	2	predict_win	S	SD037.jpg	red
124.62707089993637	3.7556678000837564	ISI	n/a	n/a	n/a	S	SD037.jpg	red
128.38650489994325	2.7503983000060543	decision_monetary	2.223570100031793	4	predict_neutral	S	SD031.jpg	red
131.13722509995569	1.012201700010337	ISI	n/a	n/a	n/a	S	SD031.jpg	red
132.15300249995198	2.7517010000301525	decision_monetary	1.723824999993667	2	predict_win	D	DD040.jpg	black
134.90502950001974	1.0110083000035957	ISI	n/a	n/a	n/a	D	DD040.jpg	black
135.91966170002706	2.7512003999436274	decision_monetary	2.3401369999628514	2	predict_win	D	DD020.jpg	brown
138.67118659999687	3.261588599998504	ISI	n/a	n/a	n/a	D	DD020.jpg	brown
141.93638349999674	2.750669899978675	decision_monetary	1.4247250999324024	4	predict_neutral	S	SD014.jpg	black
144.687381500029	3.7620227999286726	ISI	n/a	n/a	n/a	S	SD014.jpg	black
148.45321860001422	2.751624899916351	decision_monetary	2.657685699989088	7	recall_neutral	S	SD029.jpg	black
151.205176700023	5.510906199924648	ISI	n/a	n/a	n/a	S	SD029.jpg	black
156.71969519997947	2.7510892000282183	decision_monetary	1.9913214000407606	9	recall_win	D	DD016.jpg	brown
159.47111609997228	2.511582599952817	ISI	n/a	n/a	n/a	D	DD016.jpg	brown
161.9863104999531	2.7514368999982253	decision_monetary	2.290439000003971	4	predict_neutral	D	DD014.jpg	green
164.73807919991668	5.261247500078753	ISI	n/a	n/a	n/a	D	DD014.jpg	green
170.00297679996584	2.7505378000205383	decision_monetary	1.007024500053376	3	predict_loss	S	SD016.jpg	brown
172.75384199991822	2.012136400095187	ISI	n/a	n/a	n/a	S	SD016.jpg	brown
174.7695124000311	2.751358999987133	decision_monetary	1.8243259999435395	3	predict_loss	S	SD028.jpg	grey
177.5212160999654	1.2614625999704003	ISI	n/a	n/a	n/a	S	SD028.jpg	grey
178.78655949991662	2.751435900107026	decision_monetary	1.4405966000631452	4	predict_neutral	S	SD005.jpg	black
181.5383258999791	2.7609995999373496	ISI	n/a	n/a	n/a	S	SD005.jpg	black
184.30294770002365	2.751774000003934	decision_monetary	1.5575218999292701	2	predict_win	S	SD012.jpg	brown
187.0550580000272	1.0109264999628067	ISI	n/a	n/a	n/a	S	SD012.jpg	brown
188.06959019997157	2.750375199946575	decision_monetary	1.1244379000272602	2	predict_win	D	DD008.jpg	blue
190.82029319996946	2.762252900050953	ISI	n/a	n/a	n/a	D	DD008.jpg	blue
193.58625890000258	2.7514824999962	decision_monetary	1.2917536000022665	4	predict_neutral	D	DD032.jpg	red
196.33807309996337	3.0111854999559	ISI	n/a	n/a	n/a	D	DD032.jpg	red
199.35288339992985	2.752116100047715	decision_monetary	1.3400560000445694	4	predict_neutral	S	SD006.jpg	black
202.1053302999353	1.760608599986881	ISI	n/a	n/a	n/a	S	SD006.jpg	black
203.86961309995968	2.7514047999866307	decision_monetary	1.0562982000410557	2	predict_win	D	DD018.jpg	brown
206.62136320001446	4.011137199937366	ISI	n/a	n/a	n/a	D	DD018.jpg	brown
210.63616939994972	2.7503579000476748	decision_monetary	2.3238744999980554	4	predict_neutral	D	DD034.jpg	purple
213.38686400000006	2.762246700003743	ISI	n/a	n/a	n/a	D	DD034.jpg	purple
216.15281969995704	2.750971300061792	decision_monetary	1.4911403000587597	2	predict_win	S	SD032.jpg	purple
218.90417210001033	1.511678499984555	ISI	n/a	n/a	n/a	S	SD032.jpg	purple
220.41970929992385	2.750898600090295	decision_monetary	1.007861000020057	3	predict_loss	D	DD033.jpg	red
223.1709446000168	3.7616710999282077	ISI	n/a	n/a	n/a	D	DD033.jpg	red
226.93634719995316	2.751924699987285	decision_monetary	1.207794600049965	3	predict_loss	S	SD040.jpg	brown
229.68860799993854	1.2605969000142068	ISI	n/a	n/a	n/a	S	SD040.jpg	brown
230.95295349997468	2.751884500030428	decision_monetary	1.1241128999972716	3	predict_loss	S	SD030.jpg	red
233.7051970999455	1.010664000059478	ISI	n/a	n/a	n/a	S	SD030.jpg	red
234.71956250001676	2.7509251999435946	decision_monetary	1.323022799915634	2	predict_win	D	DD007.jpg	blue
237.47082719998434	2.261820900021121	ISI	n/a	n/a	n/a	D	DD007.jpg	blue
239.7363654000219	2.762838499969803	decision_monetary_MISSED	missed	missed	missed	S	SD020.jpg	green
242.49949119996745	4.766400199965574	ISI	n/a	n/a	n/a	S	SD020.jpg	green
247.26963839994278	2.751344099990092	decision_monetary	1.2402872000820935	4	predict_neutral	S	SD026.jpg	gray
250.02135609998368	1.5110538000008091	ISI	n/a	n/a	n/a	S	SD026.jpg	gray
251.53615269996226	2.75055900006555	decision_monetary	1.857816500007175	4	predict_neutral	S	SD038.jpg	brown
254.28705439995974	3.012070200056769	ISI	n/a	n/a	n/a	S	SD038.jpg	brown
257.3028641999699	2.7502510000485927	decision_monetary	2.3402230000356212	4	predict_neutral	D	DD036.jpg	brown
260.0534589999588	1.7622393000638112	ISI	n/a	n/a	n/a	D	DD036.jpg	brown
261.81958769995254	2.7503660999936983	decision_monetary	0.9562317000236362	2	predict_win	D	DD002.jpg	brown
264.57029870001134	2.0120694999350235	ISI	n/a	n/a	n/a	D	DD002.jpg	brown
266.586150099989	2.750901799998246	decision_monetary	1.2240153999300674	2	predict_win	D	DD009.jpg	white
269.3373977999436	5.761636700015515	ISI	n/a	n/a	n/a	D	DD009.jpg	white
275.10283400001936	2.7521151999244466	decision_monetary	1.5735033999662846	2	predict_win	D	DD004.jpg	blue
277.85530870000366	1.760432199924253	ISI	n/a	n/a	n/a	D	DD004.jpg	blue
279.6195069999667	2.7520997000392526	decision_monetary	1.990322700003162	2	predict_win	S	SD013.jpg	blue
282.3719515999546	2.5107924999902025	ISI	n/a	n/a	n/a	S	SD013.jpg	blue
284.8871176999528	2.7508345000678673	decision_monetary	1.0059618999948725	2	predict_win	D	DD022.jpg	blue
287.6383017000044	3.2608501999638975	ISI	n/a	n/a	n/a	D	DD022.jpg	blue
290.9032670999877	2.7513041000347584	decision_monetary	1.756313299993053	4	predict_neutral	S	SD011.jpg	blue
293.65500169992447	1.0107084000483155	ISI	n/a	n/a	n/a	S	SD011.jpg	blue
294.66949479992036	2.7502657000441104	decision_monetary	1.5066954001085833	4	predict_neutral	S	SD001.jpg	green
297.42011009994894	6.012239600066096	ISI	n/a	n/a	n/a	S	SD001.jpg	green
303.4363959999755	2.7626192000461742	decision_monetary_MISSED	missed	missed	missed	S	SD025.jpg	green
306.1993044000119	6.500708899926394	ISI	0.06676780001726002	3	predict_loss	S	SD025.jpg	green
312.7040208999533	2.7511974000371993	decision_monetary	0.9549523000605404	3	predict_loss	S	SD039.jpg	blue
315.4555734000169	3.0100112999789417	ISI	n/a	n/a	n/a	S	SD039.jpg	blue
318.46952629997395	2.7502898999955505	decision_monetary	1.0574616000521928	3	predict_loss	D	DD039.jpg	white
321.2201643999433	1.2620972000295296	ISI	n/a	n/a	n/a	D	DD039.jpg	white
322.4861852999311	2.7505579000571743	decision_monetary	1.407764200004749	4	predict_neutral	D	DD010.jpg	green
325.2370996000245	1.011841299943626	ISI	n/a	n/a	n/a	D	DD010.jpg	green
326.2528953999281	2.7502418000949547	decision_monetary	1.1242316000862047	3	predict_loss	D	DD026.jpg	white
329.0034911999246	1.2620184000115842	ISI	n/a	n/a	n/a	D	DD026.jpg	white
330.26944940001704	2.751060099923052	decision_monetary	1.0575782000087202	2	predict_win	D	DD028.jpg	red
333.020867299987	5.511378000024706	ISI	n/a	n/a	n/a	D	DD028.jpg	red
338.5362074000295	2.7508074999786913	decision_monetary	1.0238293999573216	3	predict_loss	S	SD007.jpg	brown
341.287360599963	2.011545700021088	ISI	n/a	n/a	n/a	S	SD007.jpg	brown
343.3028745999327	2.7502360000507906	decision_monetary	1.1067496000323445	3	predict_loss	S	SD036.jpg	black
346.05347889999393	1.2619837999809533	ISI	n/a	n/a	n/a	S	SD036.jpg	black
347.31954699999187	2.7520006999839097	decision_monetary	1.2403731000376865	4	predict_neutral	S	SD003.jpg	yellow
350.07189909997396	1.2602194000501186	ISI	n/a	n/a	n/a	S	SD003.jpg	yellow
351.33612310001627	2.7900940999388695	decision_monetary	2.789858700009063	4	predict_neutral	S	SD041.jpg	brown
354.12655199994333	2.005645800032653	ISI	n/a	n/a	n/a	S	SD041.jpg	brown
356.1360885000322	2.7521336999488994	decision_monetary	2.0738561999751255	3	predict_loss	D	DD035.jpg	brown
358.8885908999946	2.2602596000069752	ISI	n/a	n/a	n/a	D	DD035.jpg	brown
361.15291770000476	2.750782600021921	decision_monetary	1.3899983000010252	2	predict_win	D	DD029.jpg	brown
363.9040769999847	2.2613353999331594	ISI	n/a	n/a	n/a	D	DD029.jpg	brown
366.1693290999392	2.750504700001329	decision_monetary	1.356451200088486	4	predict_neutral	S	SD002.jpg	purple
368.9201980999205	2.0119634000584483	ISI	n/a	n/a	n/a	S	SD002.jpg	purple
370.93616119993385	2.7513408000813797	decision_monetary	1.3408165000146255	3	predict_loss	D	DD005.jpg	brown
373.6878705000272	1.7609348999103531	ISI	n/a	n/a	n/a	D	DD005.jpg	brown
375.45282140001655	2.7507471999851987	decision_monetary	1.4566310999216512	4	predict_neutral	S	SD017.jpg	blue
378.2039308999665	1.5114618999650702	ISI	n/a	n/a	n/a	S	SD017.jpg	blue
379.71948440000415	2.7521321999374777	decision_monetary	1.2575101000256836	4	predict_neutral	D	DD003.jpg	green
382.4719786000205	2.760134299984202	ISI	n/a	n/a	n/a	D	DD003.jpg	green
385.2361317999894	2.751984699978493	decision_monetary	1.6402304000221193	4	predict_neutral	S	SD022.jpg	red
387.98849269992206	1.0108534001046792	ISI	n/a	n/a	n/a	S	SD022.jpg	red
389.0033340000082	2.7504312000237405	decision_monetary	2.155622799997218	2	predict_win	S	SD018.jpg	green
391.75413200003095	1.2612246999051422	ISI	n/a	n/a	n/a	S	SD018.jpg	green
393.0193853999954	2.7520435999613255	decision_monetary	1.0910411999793723	3	predict_loss	S	SD042.jpg	purple
395.77179859997705	3.510290200007148	ISI	n/a	n/a	n/a	S	SD042.jpg	purple
399.2861401999835	2.751585299964063	decision_monetary	2.0897964000469074	4	predict_neutral	D	DD013.jpg	brown
402.0380922999466	1.2606405999977142	ISI	n/a	n/a	n/a	D	DD013.jpg	brown
403.3027944000205	2.7520238999277353	decision_monetary	1.4066008999943733	3	predict_loss	S	SD033.jpg	brown
406.05518020002637	1.2602465999079868	ISI	n/a	n/a	n/a	S	SD033.jpg	brown
407.3197517999215	2.751138500054367	decision_monetary	2.673919300083071	2	predict_win	S	SD035.jpg	blue
410.07125049992464	5.010765700018965	ISI	n/a	n/a	n/a	S	SD035.jpg	blue
415.0860920000123	2.750592099968344	decision_monetary	1.8067843000171706	2	predict_win	D	DD042.jpg	brown
417.8370582999196	1.5115967000601813	ISI	n/a	n/a	n/a	D	DD042.jpg	brown
419.352672399953	2.7502045000437647	decision_monetary	1.2901243000524119	4	predict_neutral	S	SD008.jpg	blue
422.1032514999388	1.7620949000120163	ISI	n/a	n/a	n/a	S	SD008.jpg	blue
423.8695827999618	2.7503437000559643	decision_monetary	1.8736217999830842	4	predict_neutral	D	DD001.jpg	blue
426.62032079999335	1.5117986999684945	ISI	n/a	n/a	n/a	D	DD001.jpg	blue
428.1362243000185	2.750344199943356	decision_monetary	1.5406533000059426	3	predict_loss	D	DD037.jpg	brown
430.8869655999588	2.011606700019911	ISI	n/a	n/a	n/a	D	DD037.jpg	brown
432.9027478999924	2.75072689994704	decision_monetary	1.5890486999414861	4	predict_neutral	S	SD034.jpg	red
435.6538440999575	2.76147570007015	ISI	n/a	n/a	n/a	S	SD034.jpg	red
438.41944520000834	2.750425699981861	decision_monetary	1.7724612000165507	2	predict_win	D	DD038.jpg	brown
441.17024379991926	4.5118076000362635	ISI	n/a	n/a	n/a	D	DD038.jpg	brown
445.68630689999554	2.7623085000086576	decision_monetary_MISSED	missed	missed	missed	S	SD023.jpg	blue
448.44893740001135	5.76632980001159	ISI	n/a	n/a	n/a	S	SD023.jpg	blue
454.2194097000174	2.750206899945624	decision_monetary	0.8742414999287575	2	predict_win	D	DD011.jpg	brown
456.96999669994693	1.0119542999891564	ISI	n/a	n/a	n/a	D	DD011.jpg	brown
457.98619470000267	2.7520822000224143	decision_monetary	1.5894257000181824	3	predict_loss	S	SD004.jpg	white
460.73865129996557	3.7598737999796867	ISI	n/a	n/a	n/a	S	SD004.jpg	white
