onset	duration	trial_type	rt	resp	selection	gender	image_left	image_right	image_left_type	image_right_type
0.0	1.0	ITI	n/a	n/a	n/a	n/a	n/a	n/a	n/a	n/a
1.0243631999474019	2.5011925001163036	decision_social_loss	2.3097337000072002	7	left	M	MF023.jpg	MF024.jpg	black	asian
3.5257353000342846	0.5073585000354797	ISI	n/a	n/a	n/a	M	MF023.jpg	MF024.jpg	black	asian
4.033149300143123	1.0160753999371082	feedback_social_loss_negative	n/a	n/a	n/a	M	MF023.jpg	MF024.jpg	black	asian
5.049600700149313	2.0000212998129427	ITI	n/a	n/a	n/a	M	MF023.jpg	MF024.jpg	black	asian
7.065334500046447	2.5015755998902023	decision_social_win	1.767558400053531	2	right	M	MF015.jpg	MF016.jpg	black	asian
9.567076399922371	0.5159592002164572	ISI	n/a	n/a	n/a	M	MF015.jpg	MF016.jpg	black	asian
10.083092200104147	1.0161182000301778	feedback_social_win_positive	n/a	n/a	n/a	M	MF015.jpg	MF016.jpg	black	asian
11.099313900107518	4.0003449998330325	ITI	n/a	n/a	n/a	M	MF015.jpg	MF016.jpg	black	asian
15.107911300146952	2.5013309000059962	decision_social_win	2.1589442999102175	7	left	M	MF013.jpg	MF014.jpg	latino	asian
17.60939719993621	1.5069057000800967	ISI	n/a	n/a	n/a	M	MF013.jpg	MF014.jpg	latino	asian
19.11635860009119	1.016170599963516	feedback_social_win_neutral	n/a	n/a	n/a	M	MF013.jpg	MF014.jpg	latino	asian
20.132655800087377	1.0002762000076473	ITI	n/a	n/a	n/a	M	MF013.jpg	MF014.jpg	latino	asian
21.14104779995978	2.5015221000649035	decision_social_loss	1.992201599990949	2	right	F	FF029.jpg	FF030.jpg	asian	white
23.642729100072756	0.5068675999063998	ISI	n/a	n/a	n/a	F	FF029.jpg	FF030.jpg	asian	white
24.14965289994143	1.0162938002031296	feedback_social_loss_negative	n/a	n/a	n/a	F	FF029.jpg	FF030.jpg	asian	white
25.166078800102696	5.000269399955869	ITI	n/a	n/a	n/a	F	FF029.jpg	FF030.jpg	asian	white
30.174814200028777	2.500788100063801	decision_social_win	1.9428642001003027	2	right	M	MF003.jpg	MF004.jpg	latino	white
32.67576469993219	2.0070072000380605	ISI	n/a	n/a	n/a	M	MF003.jpg	MF004.jpg	latino	white
34.68282869993709	1.01632560021244	feedback_social_win_positive	n/a	n/a	n/a	M	MF003.jpg	MF004.jpg	latino	white
35.6992806000635	2.000206399941817	ITI	n/a	n/a	n/a	M	MF003.jpg	MF004.jpg	latino	white
37.70761850010604	2.5085243999492377	decision_social_win_MISSED	missed	missed	missed	M	MF019.jpg	MF020.jpg	white	latino
40.216268100077286	0.5165768000297248	ISI	n/a	n/a	n/a	M	MF019.jpg	MF020.jpg	white	latino
40.73290370008908	1.0166478999890387	feedback_social_win_MISSED	n/a	n/a	n/a	M	MF019.jpg	MF020.jpg	white	latino
41.74965599994175	1.0165831001941115	ITI	n/a	n/a	n/a	M	MF019.jpg	MF020.jpg	white	latino
42.774373800028116	2.508364300010726	decision_social_loss_MISSED	missed	missed	missed	F	FF025.jpg	FF026.jpg	black	latino
45.2828637000639	0.516669400036335	ISI	n/a	n/a	n/a	F	FF025.jpg	FF026.jpg	black	latino
45.7995901000686	1.01651980006136	feedback_social_loss_MISSED	n/a	n/a	n/a	F	FF025.jpg	FF026.jpg	black	latino
46.81621580012143	1.0166327999904752	ITI	n/a	n/a	n/a	F	FF025.jpg	FF026.jpg	black	latino
47.84121480002068	2.508456600131467	decision_social_loss_MISSED	missed	missed	missed	M	MF027.jpg	MF028.jpg	white	black
50.34979830007069	2.0163155999034643	ISI	n/a	n/a	n/a	M	MF027.jpg	MF028.jpg	white	black
52.36618370003998	1.0000211999285966	feedback_social_loss_MISSED	n/a	n/a	n/a	M	MF027.jpg	MF028.jpg	white	black
53.36631319997832	1.000181700102985	ITI	n/a	n/a	n/a	M	MF027.jpg	MF028.jpg	white	black
54.37480350001715	2.5082157999277115	decision_social_loss_MISSED	missed	missed	missed	F	FF031.jpg	FF032.jpg	latino	black
56.88315310003236	1.0164278999436647	ISI	n/a	n/a	n/a	F	FF031.jpg	FF032.jpg	latino	black
57.89964019996114	1.0164928999729455	feedback_social_loss_MISSED	n/a	n/a	n/a	F	FF031.jpg	FF032.jpg	latino	black
58.91629100008868	1.000298999948427	ITI	n/a	n/a	n/a	F	FF031.jpg	FF032.jpg	latino	black
59.92485569999553	2.5080273000057787	decision_social_win_MISSED	missed	missed	missed	F	FF005.jpg	FF006.jpg	white	asian
62.433029799954966	0.5164735000580549	ISI	n/a	n/a	n/a	F	FF005.jpg	FF006.jpg	white	asian
62.949560899985954	1.0164707000367343	feedback_social_win_MISSED	n/a	n/a	n/a	F	FF005.jpg	FF006.jpg	white	asian
63.966138900024816	4.016837599920109	ITI	n/a	n/a	n/a	F	FF005.jpg	FF006.jpg	white	asian
67.99132340005599	2.508046699920669	decision_social_win_MISSED	missed	missed	missed	F	FF015.jpg	FF016.jpg	black	asian
70.4995021999348	1.5000287001021206	ISI	n/a	n/a	n/a	F	FF015.jpg	FF016.jpg	black	asian
71.99958880012855	1.0164583998266608	feedback_social_win_MISSED	n/a	n/a	n/a	F	FF015.jpg	FF016.jpg	black	asian
73.01615629997104	1.016707400092855	ITI	n/a	n/a	n/a	F	FF015.jpg	FF016.jpg	black	asian
74.04124970012344	2.5080406998749822	decision_social_win_MISSED	missed	missed	missed	M	MF017.jpg	MF018.jpg	white	latino
76.54941630014218	0.9999857000075281	ISI	n/a	n/a	n/a	M	MF017.jpg	MF018.jpg	white	latino
77.54946040012874	1.016546999802813	feedback_social_win_MISSED	n/a	n/a	n/a	M	MF017.jpg	MF018.jpg	white	latino
78.56611589994282	3.016623300034553	ITI	n/a	n/a	n/a	M	MF017.jpg	MF018.jpg	white	latino
81.59113400010392	2.5083629998844117	decision_social_loss_MISSED	missed	missed	missed	F	FF027.jpg	FF028.jpg	latino	asian
84.09962240001187	1.000066400039941	ISI	n/a	n/a	n/a	F	FF027.jpg	FF028.jpg	latino	asian
85.09974560001865	1.0164079000242054	feedback_social_loss_MISSED	n/a	n/a	n/a	F	FF027.jpg	FF028.jpg	latino	asian
86.11626249994151	3.016477200202644	ITI	n/a	n/a	n/a	F	FF027.jpg	FF028.jpg	latino	asian
89.14108980004676	2.508277799934149	decision_social_loss_MISSED	missed	missed	missed	M	MF029.jpg	MF030.jpg	white	black
91.6494988000486	2.01653950009495	ISI	n/a	n/a	n/a	M	MF029.jpg	MF030.jpg	white	black
93.6660951001104	1.0166404999326915	feedback_social_loss_MISSED	n/a	n/a	n/a	M	MF029.jpg	MF030.jpg	white	black
94.68284090002999	5.016557700000703	ITI	n/a	n/a	n/a	M	MF029.jpg	MF030.jpg	white	black
99.7079138001427	2.5080950998235494	decision_social_loss_MISSED	missed	missed	missed	F	FF023.jpg	FF024.jpg	white	asian
102.21613520011306	0.5169905999209732	ISI	n/a	n/a	n/a	F	FF023.jpg	FF024.jpg	white	asian
102.73318680003285	1.0161810999270529	feedback_social_loss_MISSED	n/a	n/a	n/a	F	FF023.jpg	FF024.jpg	white	asian
103.74947330006398	4.016509999986738	ITI	n/a	n/a	n/a	F	FF023.jpg	FF024.jpg	white	asian
107.77440680004656	2.508185900049284	decision_social_win_MISSED	missed	missed	missed	M	MF009.jpg	MF010.jpg	latino	asian
110.28271719999611	0.9999981999862939	ISI	n/a	n/a	n/a	M	MF009.jpg	MF010.jpg	latino	asian
111.28277190006338	1.0165239998605102	feedback_social_win_MISSED	n/a	n/a	n/a	M	MF009.jpg	MF010.jpg	latino	asian
112.29940270003863	1.0165858999826014	ITI	n/a	n/a	n/a	M	MF009.jpg	MF010.jpg	latino	asian
113.3246273000259	2.5081372000277042	decision_social_loss_MISSED	missed	missed	missed	M	MF033.jpg	MF034.jpg	white	latino
115.8328954000026	0.5164640999864787	ISI	n/a	n/a	n/a	M	MF033.jpg	MF034.jpg	white	latino
116.34941580006853	1.0165331999305636	feedback_social_loss_MISSED	n/a	n/a	n/a	M	MF033.jpg	MF034.jpg	white	latino
117.36605680012144	5.016616699984297	ITI	n/a	n/a	n/a	M	MF033.jpg	MF034.jpg	white	latino
122.39121540007181	2.50803430005908	decision_social_loss_MISSED	missed	missed	missed	M	MF025.jpg	MF026.jpg	white	asian
124.89938860014081	0.5166306998580694	ISI	n/a	n/a	n/a	M	MF025.jpg	MF026.jpg	white	asian
125.41607640008442	1.0166968998964876	feedback_social_loss_MISSED	n/a	n/a	n/a	M	MF025.jpg	MF026.jpg	white	asian
126.4329119999893	2.0166100000496954	ITI	n/a	n/a	n/a	M	MF025.jpg	MF026.jpg	white	asian
128.48727519996464	2.512024100171402	decision_social_loss_MISSED	missed	missed	missed	M	MF035.jpg	MF036.jpg	latino	black
130.99942889995873	1.516533800167963	ISI	n/a	n/a	n/a	M	MF035.jpg	MF036.jpg	latino	black
132.516019300092	1.0166036998853087	feedback_social_loss_MISSED	n/a	n/a	n/a	M	MF035.jpg	MF036.jpg	latino	black
133.53275010013022	2.0166215000208467	ITI	n/a	n/a	n/a	M	MF035.jpg	MF036.jpg	latino	black
135.55794700002298	2.507979999994859	decision_social_loss_MISSED	missed	missed	missed	M	MF039.jpg	MF040.jpg	black	asian
138.06606750003994	0.5164673000108451	ISI	n/a	n/a	n/a	M	MF039.jpg	MF040.jpg	black	asian
138.58259230013937	1.0167301998008043	feedback_social_loss_MISSED	n/a	n/a	n/a	M	MF039.jpg	MF040.jpg	black	asian
139.59942779992707	4.016604500124231	ITI	n/a	n/a	n/a	M	MF039.jpg	MF040.jpg	black	asian
143.62489069998264	2.50774130015634	decision_social_loss_MISSED	missed	missed	missed	M	MF031.jpg	MF032.jpg	latino	white
146.13278210000135	1.0164938000962138	ISI	n/a	n/a	n/a	M	MF031.jpg	MF032.jpg	latino	white
147.14933379995637	1.016495400108397	feedback_social_loss_MISSED	n/a	n/a	n/a	M	MF031.jpg	MF032.jpg	latino	white
148.16594490013085	2.0000348999165	ITI	n/a	n/a	n/a	M	MF031.jpg	MF032.jpg	latino	white
150.17445500008762	2.508185900049284	decision_social_win_MISSED	missed	missed	missed	F	FF009.jpg	FF010.jpg	asian	white
152.6827710000798	0.516554499976337	ISI	n/a	n/a	n/a	F	FF009.jpg	FF010.jpg	asian	white
153.19938380015083	1.0164726998191327	feedback_social_win_MISSED	n/a	n/a	n/a	F	FF009.jpg	FF010.jpg	asian	white
154.21597569994628	2.0166080000344664	ITI	n/a	n/a	n/a	F	FF009.jpg	FF010.jpg	asian	white
156.241087900009	2.5085037001408637	decision_social_loss_MISSED	missed	missed	missed	F	FF033.jpg	FF034.jpg	black	white
158.74972850014456	0.5162302998360246	ISI	n/a	n/a	n/a	F	FF033.jpg	FF034.jpg	black	white
159.26601679995656	1.0165185001678765	feedback_social_loss_MISSED	n/a	n/a	n/a	F	FF033.jpg	FF034.jpg	black	white
160.28266030014493	3.0165600997861475	ITI	n/a	n/a	n/a	F	FF033.jpg	FF034.jpg	black	white
163.30780770001002	2.508309799944982	decision_social_win_MISSED	missed	missed	missed	F	FF011.jpg	FF012.jpg	white	latino
165.81624449999072	0.516289799939841	ISI	n/a	n/a	n/a	F	FF011.jpg	FF012.jpg	white	latino
166.33259200002067	1.0170136000961065	feedback_social_win_MISSED	n/a	n/a	n/a	F	FF011.jpg	FF012.jpg	white	latino
167.3497337999288	4.016138500068337	ITI	n/a	n/a	n/a	F	FF011.jpg	FF012.jpg	white	latino
171.3744068001397	2.508031099801883	decision_social_loss_MISSED	missed	missed	missed	F	FF021.jpg	FF022.jpg	black	latino
173.8825634000823	0.5165387999732047	ISI	n/a	n/a	n/a	F	FF021.jpg	FF022.jpg	black	latino
174.39915970014408	1.0000562998466194	feedback_social_loss_MISSED	n/a	n/a	n/a	F	FF021.jpg	FF022.jpg	black	latino
175.39931849995628	5.016566600184888	ITI	n/a	n/a	n/a	F	FF021.jpg	FF022.jpg	black	latino
180.42462150007486	2.5079948999918997	decision_social_win_MISSED	missed	missed	missed	F	FF003.jpg	FF004.jpg	black	white
182.9327537000645	2.016295899869874	ISI	n/a	n/a	n/a	F	FF003.jpg	FF004.jpg	black	white
184.94910720014013	1.000018699793145	feedback_social_win_MISSED	n/a	n/a	n/a	F	FF003.jpg	FF004.jpg	black	white
185.94923470006324	1.0001401999033988	ITI	n/a	n/a	n/a	F	FF003.jpg	FF004.jpg	black	white
