onset	duration	trial_type	rt	resp	selection	gender	image_left	image_right	image_left_type	image_right_type
0.0	1.0	ITI	n/a	n/a	n/a	n/a	n/a	n/a	n/a	n/a
1.023366800043732	2.5013609000016004	decision_social_loss	1.8033660999499261	7	left	M	MF023.jpg	MF024.jpg	black	asian
3.5249296999536455	0.5082499000709504	ISI	n/a	n/a	n/a	M	MF023.jpg	MF024.jpg	black	asian
4.033238900010474	1.0159761999966577	feedback_social_loss_negative	n/a	n/a	n/a	M	MF023.jpg	MF024.jpg	black	asian
5.049326000036672	2.000777499983087	ITI	n/a	n/a	n/a	M	MF023.jpg	MF024.jpg	black	asian
7.065929200034589	2.5014295999426395	decision_social_win	2.045681899995543	7	left	M	MF015.jpg	MF016.jpg	black	asian
9.567522899946198	0.515362000092864	ISI	n/a	n/a	n/a	M	MF015.jpg	MF016.jpg	black	asian
10.082941600005142	1.0162614999571815	feedback_social_win_positive	n/a	n/a	n/a	M	MF015.jpg	MF016.jpg	black	asian
11.09930300002452	4.000374499941245	ITI	n/a	n/a	n/a	M	MF015.jpg	MF016.jpg	black	asian
15.107492699986324	2.5017112999921665	decision_social_win	1.9697200000518933	2	right	M	MF013.jpg	MF014.jpg	latino	asian
17.60936080000829	1.5069342999486253	ISI	n/a	n/a	n/a	M	MF013.jpg	MF014.jpg	latino	asian
19.11635180003941	1.0160930999554694	feedback_social_win_neutral	n/a	n/a	n/a	M	MF013.jpg	MF014.jpg	latino	asian
20.13264830003027	1.0003272999310866	ITI	n/a	n/a	n/a	M	MF013.jpg	MF014.jpg	latino	asian
21.141353599959984	2.5015507000498474	decision_social_loss	1.601945500005968	2	right	F	FF029.jpg	FF030.jpg	asian	white
23.643062100047246	0.5066535999067128	ISI	n/a	n/a	n/a	F	FF029.jpg	FF030.jpg	asian	white
24.149773000041023	1.0160351999802515	feedback_social_loss_negative	n/a	n/a	n/a	F	FF029.jpg	FF030.jpg	asian	white
25.165906599955633	5.000270100077614	ITI	n/a	n/a	n/a	F	FF029.jpg	FF030.jpg	asian	white
30.17421920003835	2.5022367999190465	decision_social_win	1.8533764999592677	2	right	M	MF003.jpg	MF004.jpg	latino	white
32.67662150005344	2.0064725999254733	ISI	n/a	n/a	n/a	M	MF003.jpg	MF004.jpg	latino	white
34.683150400058366	1.0159649999113753	feedback_social_win_positive	n/a	n/a	n/a	M	MF003.jpg	MF004.jpg	latino	white
35.69921600003727	2.000681599951349	ITI	n/a	n/a	n/a	M	MF003.jpg	MF004.jpg	latino	white
37.708005300024524	2.5083617999916896	decision_social_win_MISSED	missed	missed	missed	M	MF019.jpg	MF020.jpg	white	latino
40.21649689995684	0.5001679999986663	ISI	0.15001320000737906	7	left	M	MF019.jpg	MF020.jpg	white	latino
40.71672979998402	1.0158152000512928	feedback_social_win_MISSED	n/a	n/a	n/a	M	MF019.jpg	MF020.jpg	white	latino
41.73265799996443	1.0003645999822766	ITI	n/a	n/a	n/a	M	MF019.jpg	MF020.jpg	white	latino
42.740994499996305	2.500975999981165	decision_social_loss	1.903379200026393	2	right	F	FF025.jpg	FF026.jpg	black	latino
45.24213020002935	0.507569000008516	ISI	n/a	n/a	n/a	F	FF025.jpg	FF026.jpg	black	latino
45.74979419994634	1.0159906001063064	feedback_social_loss_negative	n/a	n/a	n/a	F	FF025.jpg	FF026.jpg	black	latino
46.765886900015175	1.0004117999924347	ITI	n/a	n/a	n/a	F	FF025.jpg	FF026.jpg	black	latino
47.7745270000305	2.500872900011018	decision_social_loss	1.6869460999732837	7	left	M	MF027.jpg	MF028.jpg	white	black
50.27557729999535	2.007460299995728	ISI	n/a	n/a	n/a	M	MF027.jpg	MF028.jpg	white	black
52.28309439995792	1.0161235000705346	feedback_social_loss_negative	n/a	n/a	n/a	M	MF027.jpg	MF028.jpg	white	black
53.29932730004657	1.0003219000063837	ITI	n/a	n/a	n/a	M	MF027.jpg	MF028.jpg	white	black
54.307542599970475	2.500486999982968	decision_social_loss	1.9700369000202045	7	left	F	FF031.jpg	FF032.jpg	latino	black
56.80819590005558	1.008200499927625	ISI	n/a	n/a	n/a	F	FF031.jpg	FF032.jpg	latino	black
57.81650580000132	1.0160309999482706	feedback_social_loss_negative	n/a	n/a	n/a	F	FF031.jpg	FF032.jpg	latino	black
58.83264080004301	1.0004320999141783	ITI	n/a	n/a	n/a	F	FF031.jpg	FF032.jpg	latino	black
59.84111969999503	2.500569500029087	decision_social_win	2.2194455000571907	7	left	F	FF005.jpg	FF006.jpg	white	asian
62.34185800002888	0.5077871999237686	ISI	n/a	n/a	n/a	F	FF005.jpg	FF006.jpg	white	asian
62.849702800041996	1.016128099989146	feedback_social_win_positive	n/a	n/a	n/a	F	FF005.jpg	FF006.jpg	white	asian
63.86593540001195	4.000397399999201	ITI	n/a	n/a	n/a	F	FF005.jpg	FF006.jpg	white	asian
67.8746484000003	2.5019049999536946	decision_social_win	1.5195882000261918	7	left	F	FF015.jpg	FF016.jpg	black	asian
70.37672479997855	1.5063652000389993	ISI	n/a	n/a	n/a	F	FF015.jpg	FF016.jpg	black	asian
71.88314709998667	1.0159520000452176	feedback_social_win_positive	n/a	n/a	n/a	F	FF015.jpg	FF016.jpg	black	asian
72.8992028000066	1.0005043999990448	ITI	n/a	n/a	n/a	F	FF015.jpg	FF016.jpg	black	asian
73.90771810000297	2.5010268000187352	decision_social_win	1.8029811000451446	2	right	M	MF017.jpg	MF018.jpg	white	latino
76.40891240001656	1.0074704999569803	ISI	n/a	n/a	n/a	M	MF017.jpg	MF018.jpg	white	latino
77.41644040006213	1.0160854998975992	feedback_social_win_positive	n/a	n/a	n/a	M	MF017.jpg	MF018.jpg	white	latino
78.43274129997008	3.0003162000793964	ITI	n/a	n/a	n/a	M	MF017.jpg	MF018.jpg	white	latino
81.4410747999791	2.501994000049308	decision_social_loss	2.05257000005804	2	right	F	FF027.jpg	FF028.jpg	latino	asian
83.9432365000248	1.0064120999304578	ISI	n/a	n/a	n/a	F	FF027.jpg	FF028.jpg	latino	asian
84.94970380002633	1.0161161000141874	feedback_social_loss_negative	n/a	n/a	n/a	F	FF027.jpg	FF028.jpg	latino	asian
85.96592690004036	3.0004023999208584	ITI	n/a	n/a	n/a	F	FF027.jpg	FF028.jpg	latino	asian
88.97435230005067	2.5009302999824286	decision_social_loss	2.0364384999265894	2	right	M	MF029.jpg	MF030.jpg	white	black
91.4754492000211	2.007623399957083	ISI	n/a	n/a	n/a	M	MF029.jpg	MF030.jpg	white	black
93.48313039995264	1.0160312000662088	feedback_social_loss_negative	n/a	n/a	n/a	M	MF029.jpg	MF030.jpg	white	black
94.49946770002134	5.0002042999258265	ITI	n/a	n/a	n/a	M	MF029.jpg	MF030.jpg	white	black
99.50779559998773	2.5022399000590667	decision_social_loss	1.8858889000257477	2	right	F	FF023.jpg	FF024.jpg	white	asian
102.01020250003785	0.5061846999451518	ISI	n/a	n/a	n/a	F	FF023.jpg	FF024.jpg	white	asian
102.51644599996507	1.0160648000892252	feedback_social_loss_negative	n/a	n/a	n/a	F	FF023.jpg	FF024.jpg	white	asian
103.53262229997199	4.000398800009862	ITI	n/a	n/a	n/a	F	FF023.jpg	FF024.jpg	white	asian
107.54126630001701	2.502231699996628	decision_social_win	2.086386200040579	7	left	M	MF009.jpg	MF010.jpg	latino	asian
110.04367220005952	1.0058547999942675	ISI	n/a	n/a	n/a	M	MF009.jpg	MF010.jpg	latino	asian
111.04958810005337	1.0162784999702126	feedback_social_win_neutral	n/a	n/a	n/a	M	MF009.jpg	MF010.jpg	latino	asian
112.06597760005388	1.0002739999908954	ITI	n/a	n/a	n/a	M	MF009.jpg	MF010.jpg	latino	asian
113.07436970004346	2.508706699940376	decision_social_loss_MISSED	missed	missed	missed	M	MF033.jpg	MF034.jpg	white	latino
115.58320680004545	0.5001481999643147	ISI	0.2665996999712661	7	left	M	MF033.jpg	MF034.jpg	white	latino
116.08341550000478	1.0157155999913812	feedback_social_loss_MISSED	n/a	n/a	n/a	M	MF033.jpg	MF034.jpg	white	latino
117.09925720002502	5.000361499958672	ITI	n/a	n/a	n/a	M	MF033.jpg	MF034.jpg	white	latino
122.10795420000795	2.5010447000386193	decision_social_loss	1.802642000024207	2	right	M	MF025.jpg	MF026.jpg	white	asian
124.6091692999471	0.5071907000383362	ISI	n/a	n/a	n/a	M	MF025.jpg	MF026.jpg	white	asian
125.11641849996522	1.016087400028482	feedback_social_loss_negative	n/a	n/a	n/a	M	MF025.jpg	MF026.jpg	white	asian
126.13261990004685	2.0002585999900475	ITI	n/a	n/a	n/a	M	MF025.jpg	MF026.jpg	white	asian
128.14138160005677	2.5020323999924585	decision_social_loss	1.619253399898298	7	left	M	MF035.jpg	MF036.jpg	latino	black
130.6435944000259	1.5061904999893159	ISI	n/a	n/a	n/a	M	MF035.jpg	MF036.jpg	latino	black
132.14984349999577	1.0160043999785557	feedback_social_loss_negative	n/a	n/a	n/a	M	MF035.jpg	MF036.jpg	latino	black
133.16596530005336	2.000421099946834	ITI	n/a	n/a	n/a	M	MF035.jpg	MF036.jpg	latino	black
135.17468569998164	2.501257300027646	decision_social_loss	1.9199615999823436	7	left	M	MF039.jpg	MF040.jpg	black	asian
137.67611829994712	0.5068613000912592	ISI	n/a	n/a	n/a	M	MF039.jpg	MF040.jpg	black	asian
138.1830362000037	1.0160384000046179	feedback_social_loss_neutral	n/a	n/a	n/a	M	MF039.jpg	MF040.jpg	black	asian
139.19919229997322	4.000428900006227	ITI	n/a	n/a	n/a	M	MF039.jpg	MF040.jpg	black	asian
143.20800520002376	2.5007420999463648	decision_social_loss	2.31862789997831	7	left	M	MF031.jpg	MF032.jpg	latino	white
145.70892809994984	1.0074151000007987	ISI	n/a	n/a	n/a	M	MF031.jpg	MF032.jpg	latino	white
146.71640160004608	1.0161045999266207	feedback_social_loss_negative	n/a	n/a	n/a	M	MF031.jpg	MF032.jpg	latino	white
147.73265769996215	2.000290900003165	ITI	n/a	n/a	n/a	M	MF031.jpg	MF032.jpg	latino	white
149.7412015000591	2.509516799938865	decision_social_win_MISSED	missed	missed	missed	F	FF009.jpg	FF010.jpg	asian	white
152.25086949998513	0.5154669000767171	ISI	n/a	n/a	n/a	F	FF009.jpg	FF010.jpg	asian	white
152.76639310002793	1.0166222000261769	feedback_social_win_MISSED	n/a	n/a	n/a	F	FF009.jpg	FF010.jpg	asian	white
153.78318370005582	2.016410299926065	ITI	n/a	n/a	n/a	F	FF009.jpg	FF010.jpg	asian	white
155.80783890001476	2.5009795000078157	decision_social_loss	1.4864979999838397	2	right	F	FF033.jpg	FF034.jpg	black	white
158.3090033000335	0.5073864000150934	ISI	n/a	n/a	n/a	F	FF033.jpg	FF034.jpg	black	white
158.81644810002763	1.016031099949032	feedback_social_loss_negative	n/a	n/a	n/a	F	FF033.jpg	FF034.jpg	black	white
159.83260490000248	3.0003398000262678	ITI	n/a	n/a	n/a	F	FF033.jpg	FF034.jpg	black	white
162.84132929996122	2.5011834000470117	decision_social_win	1.8029543000739068	7	left	F	FF011.jpg	FF012.jpg	white	latino
165.34269770001993	0.5069192999508232	ISI	n/a	n/a	n/a	F	FF011.jpg	FF012.jpg	white	latino
165.8496741000563	1.0160441999323666	feedback_social_win_neutral	n/a	n/a	n/a	F	FF011.jpg	FF012.jpg	white	latino
166.86583879997488	4.000507900025696	ITI	n/a	n/a	n/a	F	FF011.jpg	FF012.jpg	white	latino
170.8747057999717	2.5020205000182614	decision_social_loss	1.3365305999759585	2	right	F	FF021.jpg	FF022.jpg	black	latino
173.3769319000421	0.506075199926272	ISI	n/a	n/a	n/a	F	FF021.jpg	FF022.jpg	black	latino
173.88306390005164	1.01598569995258	feedback_social_loss_negative	n/a	n/a	n/a	F	FF021.jpg	FF022.jpg	black	latino
174.89916949998587	5.00042910000775	ITI	n/a	n/a	n/a	F	FF021.jpg	FF022.jpg	black	latino
179.90807460003998	2.5013117999769747	decision_social_win	1.4524887999286875	7	left	F	FF003.jpg	FF004.jpg	black	white
182.40957829996478	2.006764200050384	ISI	n/a	n/a	n/a	F	FF003.jpg	FF004.jpg	black	white
184.41640170000028	1.01598569995258	feedback_social_win_positive	n/a	n/a	n/a	F	FF003.jpg	FF004.jpg	black	white
185.43251309997868	1.0004819000605494	ITI	n/a	n/a	n/a	F	FF003.jpg	FF004.jpg	black	white
186.44154499995057	2.5012477000709623	decision_social_win	1.9026578000048175	2	right	F	FF007.jpg	FF008.jpg	asian	black
188.94298489997163	1.0066200000001118	ISI	n/a	n/a	n/a	F	FF007.jpg	FF008.jpg	asian	black
189.94966689997818	1.0158796000760049	feedback_social_win_positive	n/a	n/a	n/a	F	FF007.jpg	FF008.jpg	asian	black
190.9657118000323	1.000446500023827	ITI	n/a	n/a	n/a	F	FF007.jpg	FF008.jpg	asian	black
191.97455200005788	2.5012435999233276	decision_social_win	1.7363271999638528	7	left	M	MF021.jpg	MF022.jpg	black	latino
194.47598750004545	1.5069474999327213	ISI	n/a	n/a	n/a	M	MF021.jpg	MF022.jpg	black	latino
195.9829919000622	1.016041599912569	feedback_social_win_positive	n/a	n/a	n/a	M	MF021.jpg	MF022.jpg	black	latino
196.99915719998535	1.0004288000054657	ITI	n/a	n/a	n/a	M	MF021.jpg	MF022.jpg	black	latino
198.00827550003305	2.5013843999477103	decision_social_win	1.3195666000247002	2	right	F	FF013.jpg	FF014.jpg	white	black
200.50984630000312	0.5065263999858871	ISI	n/a	n/a	n/a	F	FF013.jpg	FF014.jpg	white	black
201.01642790006008	1.0160269999178126	feedback_social_win_neutral	n/a	n/a	n/a	F	FF013.jpg	FF014.jpg	white	black
202.03259519999847	3.0003949999809265	ITI	n/a	n/a	n/a	F	FF013.jpg	FF014.jpg	white	black
205.04140560002998	2.501083299983293	decision_social_win	1.5183481000130996	2	right	F	FF019.jpg	FF020.jpg	latino	asian
207.54266899998765	0.5070235000457615	ISI	n/a	n/a	n/a	F	FF019.jpg	FF020.jpg	latino	asian
208.0497470999835	1.016091600060463	feedback_social_win_positive	n/a	n/a	n/a	F	FF019.jpg	FF020.jpg	latino	asian
209.06600750004873	5.000312599935569	ITI	n/a	n/a	n/a	F	FF019.jpg	FF020.jpg	latino	asian
214.07510869996622	2.5020087000448257	decision_social_loss	1.669702099985443	7	left	F	FF039.jpg	FF040.jpg	white	black
216.57730680005625	2.0056072999723256	ISI	n/a	n/a	n/a	F	FF039.jpg	FF040.jpg	white	black
218.58297129999846	1.016058100038208	feedback_social_loss_neutral	n/a	n/a	n/a	F	FF039.jpg	FF040.jpg	white	black
219.599267099984	2.0002069000620395	ITI	n/a	n/a	n/a	F	FF039.jpg	FF040.jpg	white	black
221.60806370002683	2.5015413999790326	decision_social_loss	2.036192800034769	2	right	F	FF035.jpg	FF036.jpg	latino	black
224.10979739995673	0.5065383000764996	ISI	n/a	n/a	n/a	F	FF035.jpg	FF036.jpg	latino	black
224.6163966000313	1.0160440999316052	feedback_social_loss_neutral	n/a	n/a	n/a	F	FF035.jpg	FF036.jpg	latino	black
225.6325683000032	1.0004255999810994	ITI	n/a	n/a	n/a	F	FF035.jpg	FF036.jpg	latino	black
226.6414972000057	2.5012175999581814	decision_social_loss	1.8027810000348836	2	right	F	FF041.jpg	FF042.jpg	latino	white
229.1429014999885	0.5066902000689879	ISI	n/a	n/a	n/a	F	FF041.jpg	FF042.jpg	latino	white
229.64964970003348	1.0161120999837294	feedback_social_loss_neutral	n/a	n/a	n/a	F	FF041.jpg	FF042.jpg	latino	white
230.66589589999057	2.0001844000071287	ITI	n/a	n/a	n/a	F	FF041.jpg	FF042.jpg	latino	white
232.67460190004203	2.5009538999293	decision_social_win	1.7196807999862358	7	left	M	MF001.jpg	MF002.jpg	black	asian
235.17575060005765	0.5071533999871463	ISI	n/a	n/a	n/a	M	MF001.jpg	MF002.jpg	black	asian
235.68296230002306	1.016062599956058	feedback_social_win_positive	n/a	n/a	n/a	M	MF001.jpg	MF002.jpg	black	asian
236.69915909995325	1.0003842000151053	ITI	n/a	n/a	n/a	M	MF001.jpg	MF002.jpg	black	asian
237.70812029996887	2.5017427999991924	decision_social_win	1.6518046000273898	7	left	M	MF005.jpg	MF006.jpg	white	black
240.21006109996233	1.5062924000667408	ISI	n/a	n/a	n/a	M	MF005.jpg	MF006.jpg	white	black
241.7164100999944	1.0160021999618039	feedback_social_win_positive	n/a	n/a	n/a	M	MF005.jpg	MF006.jpg	white	black
242.73254120000638	1.0003366000019014	ITI	n/a	n/a	n/a	M	MF005.jpg	MF006.jpg	white	black
243.74137880001217	2.5020635999972	decision_social_loss	2.103309200028889	7	left	F	FF037.jpg	FF038.jpg	latino	latino
246.24363319994882	2.005951900035143	ISI	n/a	n/a	n/a	F	FF037.jpg	FF038.jpg	latino	latino
248.24964779999573	1.0160082000074908	feedback_social_loss_neutral	n/a	n/a	n/a	F	FF037.jpg	FF038.jpg	latino	latino
249.26578629994765	1.0005173000972718	ITI	n/a	n/a	n/a	F	FF037.jpg	FF038.jpg	latino	latino
250.27481229999103	2.5020492000039667	decision_social_win	1.9869006000226364	2	right	F	FF017.jpg	FF018.jpg	asian	asian
252.77705779997632	1.5058471000520512	ISI	n/a	n/a	n/a	F	FF017.jpg	FF018.jpg	asian	asian
254.28296179999597	1.016024100012146	feedback_social_win_positive	n/a	n/a	n/a	F	FF017.jpg	FF018.jpg	asian	asian
255.29911539994646	2.0004334000404924	ITI	n/a	n/a	n/a	F	FF017.jpg	FF018.jpg	asian	asian
257.3081003000261	2.5014452999457717	decision_social_win	1.7525836999993771	7	left	M	MF011.jpg	MF012.jpg	latino	black
259.8097407000605	0.5065660999389365	ISI	n/a	n/a	n/a	M	MF011.jpg	MF012.jpg	latino	black
260.3164065000601	1.0159921000013128	feedback_social_win_neutral	n/a	n/a	n/a	M	MF011.jpg	MF012.jpg	latino	black
261.3325306000188	1.0004125999985263	ITI	n/a	n/a	n/a	M	MF011.jpg	MF012.jpg	latino	black
262.34153279999737	2.5015004000160843	decision_social_loss	1.5681604000274092	7	left	M	MF041.jpg	MF042.jpg	white	asian
264.8432217000518	2.006337199942209	ISI	n/a	n/a	n/a	M	MF041.jpg	MF042.jpg	white	asian
266.8496150999563	1.0161153000080958	feedback_social_loss_neutral	n/a	n/a	n/a	M	MF041.jpg	MF042.jpg	white	asian
267.8658605000237	3.0003157999599352	ITI	n/a	n/a	n/a	M	MF041.jpg	MF042.jpg	white	asian
270.87484720000066	2.502067800029181	decision_social_loss	2.318945199949667	7	left	M	MF037.jpg	MF038.jpg	asian	latino
273.377124599996	0.5058313000481576	ISI	n/a	n/a	n/a	M	MF037.jpg	MF038.jpg	asian	latino
273.88301160000265	1.0160021999618039	feedback_social_loss_neutral	n/a	n/a	n/a	M	MF037.jpg	MF038.jpg	asian	latino
274.89914790005423	1.0004305999027565	ITI	n/a	n/a	n/a	M	MF037.jpg	MF038.jpg	asian	latino
275.9084583000513	2.501089599914849	decision_social_win	2.2522684999275953	2	right	F	FF001.jpg	FF002.jpg	latino	black
278.40973730001133	2.0065429999958724	ISI	n/a	n/a	n/a	F	FF001.jpg	FF002.jpg	latino	black
280.4163369999733	1.0160466000670567	feedback_social_win_positive	n/a	n/a	n/a	F	FF001.jpg	FF002.jpg	latino	black
281.432559399982	5.000287699978799	ITI	n/a	n/a	n/a	F	FF001.jpg	FF002.jpg	latino	black
286.4416914000176	2.5019731000065804	decision_social_win	1.735403100028634	2	right	M	MF007.jpg	MF008.jpg	asian	white
288.94386320002377	0.5057614999823272	ISI	n/a	n/a	n/a	M	MF007.jpg	MF008.jpg	asian	white
289.4496812999714	1.0161414999747649	feedback_social_win_neutral	n/a	n/a	n/a	M	MF007.jpg	MF008.jpg	asian	white
290.4659586000489	6.000184200005606	ITI	n/a	n/a	n/a	M	MF007.jpg	MF008.jpg	asian	white
